acce_x,acce_y,acce_z,gyro_x,gyro_y,gyro_z
1.46525,-0.632069,8.23845,-0.0261133,0.00959265,0.151617
1.39342,-0.687136,8.52096,-0.0289112,-0.0131899,0.163075
1.69749,-0.68953,8.46829,0.0,-0.0345069,0.168937
1.60172,-0.579397,8.44195,-0.00506279,-0.010925,0.158145
1.47483,-0.320823,8.37492,-0.0315758,0.00826034,0.137095
1.42455,-0.627281,8.54969,-0.028245,-0.0291776,0.131766
1.78607,-0.55306,8.35337,-0.0373047,0.0438331,0.149485
1.14443,-0.519542,8.55927,-0.0594211,0.00599541,0.130433
1.26174,-0.720654,8.59518,-0.0137228,-0.0370383,0.135496
1.45567,-0.636858,8.6311,-0.0110582,-0.0350398,0.168937
1.7334,-0.679953,8.42998,0.0177197,-0.00399694,0.164274
1.92733,-0.591368,8.20014,0.0289112,-0.0207841,0.0983246
2.00634,-0.490811,8.08761,-0.0179862,-0.0175865,0.0664824
2.09493,-0.363919,8.33421,-0.0682144,0.0503614,0.0883323
1.13964,-0.507571,8.97107,-0.0989908,0.0337075,0.0684808
0.895431,-0.770933,9.10036,-0.0139893,-0.0488959,0.088732
1.45328,-0.933739,8.49941,0.0648836,-0.0911301,0.0903308
1.72622,-0.421379,7.66623,0.0353063,-0.0539586,0.0664824
2.06141,0.146046,7.23528,-0.0476968,0.00679479,0.0472971
1.53229,0.023942,8.14268,-0.152017,-0.0451654,0.016121
1.47243,-0.849941,9.07881,-0.127236,-0.0806049,0.0297106
2.08535,-1.04627,9.12191,-0.0454318,-0.0217167,0.0608867
1.5706,-0.699107,8.75559,-0.0435666,-0.00959265,0.0730107
1.54426,-0.866701,8.7101,0.0166539,-0.0754088,0.0876661
2.1045,-0.500388,8.01339,0.0198514,-0.012124,0.0884655
1.82438,-0.31364,7.92002,-0.0563568,-0.0251807,0.0480965
1.82438,-0.586579,8.32463,-0.085268,-0.016121,0.0303767
1.80762,-0.577003,8.43956,-0.109516,0.0377044,0.0619525
1.03669,-0.639252,8.69574,-0.0654165,-0.0578223,0.0742098
1.80044,-0.857124,8.66701,-0.0211838,-0.0154548,0.0716784
1.71904,-0.521936,8.33421,-0.0207841,-0.0378377,0.0387703
1.76692,-0.588974,8.20253,-0.0383706,-0.0498285,0.014389
2.12366,-0.260968,7.94396,-0.0598208,-0.00479632,-0.00652833
1.5706,-0.277727,8.45392,-0.120041,-0.0189188,-0.000266462
1.53947,-0.952892,8.91122,-0.0632848,-0.0325084,-0.00466309
1.65918,-0.526724,8.7125,-0.0619525,-0.0142557,-0.00666156
1.56581,-0.632069,8.74362,-0.0309096,-0.0167871,-0.0151884
1.59454,-0.59855,8.59518,-0.00506279,-0.000932618,0.010392
1.38864,-0.339977,8.00381,-0.0452986,0.0359724,0.0363721
1.26414,-0.687136,8.25999,-0.0365053,-0.0362389,0.0422343
1.84114,-0.742202,8.4635,-0.0227825,-0.00586217,0.0427672
1.56581,-0.454898,8.29112,-0.0274456,-0.0346401,0.0375712
1.93691,-0.426168,8.31985,-0.0776738,-0.0205176,0.026513
1.84353,-0.622492,8.56406,-0.0728775,0.00159877,0.0190521
1.79805,-0.73502,8.5066,-0.0305099,-0.0378377,-0.0239816
1.70707,-0.294487,8.36773,-0.0662159,-0.0450321,-0.0327749
1.78129,-0.562637,8.50899,-0.081804,0.00333078,-0.00466309
1.69749,-0.828393,8.51138,-0.0246478,-0.0131899,-0.00732772
1.70707,-0.699107,8.06606,-0.0251807,-0.0295773,-0.00599541
1.37188,-0.246603,8.11874,-0.0993905,-0.0516937,-0.0349066
1.78607,-0.806846,8.7101,-0.0907305,-0.0101256,-0.0366386
1.48919,-0.761356,8.77235,-0.0688805,-0.000799387,0.00373047
1.34075,-0.56982,8.72447,-0.0442328,-0.0198514,0.0243813
1.63284,-0.59855,8.60955,-0.0291776,0.00359724,0.0319755
1.78129,-0.608127,8.27675,-0.0021317,-0.00599541,0.0198514
1.65679,-0.469263,8.1738,-0.0279786,-0.0333078,0.0375712
1.83875,-0.438139,8.22647,-0.0539586,-0.013856,0.0251807
1.86029,-0.622492,8.38928,-0.0702128,0.0318423,0.0106585
1.5682,-0.40462,8.44913,-0.0652833,-0.0042634,0.00719449
1.52032,-0.507571,8.63828,-0.0772741,-0.0270459,0.0219832
1.78368,-0.782904,8.76996,0.000799387,-0.0179862,0.00439663
1.62087,-0.385466,8.31027,-0.0198514,-0.0302435,0.0157213
1.70946,-0.366313,8.28154,-0.0550245,-0.00799387,-0.00999234
2.05422,-0.59855,8.38928,-0.0446325,0.0306432,-0.00719449
1.68073,-0.670376,8.45392,-0.0534257,0.0580888,0.0194518
1.44849,-0.586579,8.38928,-0.00972588,-0.0209173,0.000932618
1.8148,-0.682347,8.65504,-0.0233155,0.0125237,0.0266462
1.43173,-0.557849,8.54969,-0.0243813,-0.0153216,0.0250475
1.70946,-0.536301,8.48984,-0.00532925,0.0231822,0.0612864
1.39342,-0.610521,8.44435,0.00586217,-0.0181194,0.0551577
1.96324,-0.500388,8.35576,0.00506279,0.0325084,0.0419678
1.86029,-0.517147,8.30309,-0.017853,0.0456983,0.0458315
1.72861,-0.720654,8.35337,-0.0119908,0.0536922,0.0173201
1.82917,-0.591368,8.24802,-0.00919295,0.0377044,-0.0166539
1.83635,-0.442927,8.19056,0.0177197,0.0474303,0.0544916
1.06063,-0.136469,8.23366,-0.0772741,0.119242,0.0997902
1.62327,-0.430956,8.58321,-0.0382374,-0.0281118,0.120574
1.28569,-0.304064,8.16901,-0.0337075,-0.059954,0.116178
1.86987,-0.0790086,8.39646,0.0487626,0.371848,0.251274
1.52989,-0.859518,8.95192,-0.0311761,0.0480965,0.116577
1.45328,-0.881066,8.40125,-0.0118576,0.00892649,0.0492955
1.38864,-0.251391,7.98945,-0.0999234,-0.0261133,0.0358392
1.58017,-1.02951,8.87291,-0.0897978,-0.184525,-0.0881991
2.18591,-0.361524,8.30548,-0.0975252,-0.204377,-0.0600873
2.70305,-0.37589,8.82024,-0.136429,-0.0407687,-0.184525
2.92093,-0.469263,8.59758,-0.118309,0.100323,-0.149086
2.35589,-0.445321,8.24084,-0.118176,0.24328,-0.301103
1.01035,-0.40462,8.41562,-0.240216,0.102721,-0.477634
1.75255,-0.612916,8.12831,0.193452,0.483763,-0.644972
0.931344,-0.296881,8.52814,-0.150551,0.422476,-0.292176
0.962469,-0.907402,8.90882,-0.0716784,0.44819,-0.307631
0.203507,-0.782904,8.41322,-0.0566233,0.299371,-0.452187
1.37427,-0.328006,9.2464,-0.111515,0.39956,-0.0718116
-0.526724,-0.696712,8.89685,-0.0398361,0.0498285,-0.249276
-0.143652,-0.940921,8.06128,-0.0586217,-0.0596876,-0.227159
1.48201,-0.366313,8.93276,-0.103254,-0.216101,-0.250874
1.48919,-0.023942,8.03973,-0.227159,0.0239816,-0.0909969
1.12527,-0.61531,8.06367,-0.302701,0.0527596,-0.0722113
1.19949,-1.40061,8.82024,-0.261,-0.0125237,-0.192519
0.0335188,-0.648829,8.65025,-0.132698,-0.210639,-0.315625
1.69031,-0.653617,8.58081,0.00133231,-0.174266,-0.553709
1.48919,0.0766144,7.57046,0.0483629,0.25234,0.794724
0.0526724,-0.893037,8.74602,-0.13483,0.164541,0.384106
1.20189,-1.0726,8.77235,-0.017853,0.226227,0.528661
0.241814,-1.06302,8.81305,-0.148153,-0.113513,-0.0634181
0.828393,-0.864306,8.73165,-0.09566,-0.165473,0.0259801
0.847547,-0.581791,7.87213,-0.132432,-0.0209173,0.465377
-0.234632,-0.715866,8.34618,-0.058755,-0.316691,-0.280318
0.725443,-1.1157,8.48265,-0.0182527,-0.274856,-0.183992
1.91297,-0.217872,8.91361,-0.0612864,-0.083536,0.0670153
0.785298,-0.507571,8.29351,-0.0568897,0.104187,-0.382374
1.32639,-1.21386,8.63828,0.15175,0.0442328,-0.122173
0.97444,-0.395043,8.56166,-0.0405023,-0.199047,0.129501
1.48201,-1.05824,8.59758,0.0159877,-0.211971,-0.316024
1.78129,-0.715866,8.38449,0.0960597,-0.0399694,-0.0967259
1.18513,0.169988,7.78834,-0.0866003,0.233021,-0.110582
0.931344,-0.416591,8.66222,-0.191986,0.197848,-0.0823369
0.648829,-1.33357,9.11233,0.0205176,-0.0614196,0.088732
0.143652,-0.23942,8.18577,-0.0257136,-0.0679479,0.0085268
1.49877,-0.248997,8.27915,-0.0632848,0.0692802,0.0433002
0.768538,-0.454898,8.2169,-0.0253139,-0.111781,0.0414349
0.828393,-0.136469,7.93438,-0.040369,-0.152416,-0.0127902
0.952892,-0.656011,8.65025,-0.0786064,-0.058222,-0.0301103
1.39582,-0.756567,8.54969,-0.0580888,0.00626187,-0.0430337
1.28808,-0.687136,8.58321,-0.044366,0.0369051,-0.0346401
1.12049,-0.596156,8.48265,-0.0992572,-0.0555574,-0.0952603
1.37906,-0.73502,8.67179,-0.0203844,-0.100989,-0.1311
0.83797,-0.320823,8.60715,-0.0575559,0.0227825,-0.131766
1.29526,-0.0861912,7.87213,-0.191986,0.167072,-0.129634
0.794875,-0.162806,7.69736,-0.314026,0.365187,-0.195717
1.31442,-0.869095,8.25281,-0.301769,0.374246,-0.237018
1.41737,-0.287304,8.28154,-0.340139,0.395297,-0.252606
0.656011,0.560243,7.96311,-0.592746,0.612864,-0.191187
-0.071826,-1.26653,9.43794,-0.257403,-0.134297,-0.057023
1.35991,-1.74537,9.63427,-0.0269127,-0.281917,-0.0147887
-0.0287304,-1.6089,9.16021,0.0531592,-0.189055,-0.0222496
0.55306,-1.22344,8.78672,-0.05649,-0.187723,-0.00692802
0.514753,-1.60651,8.73883,0.0498285,-0.201446,-0.0277121
2.14281,-0.948104,8.23126,0.163608,-0.0750091,0.00279786
1.42934,-0.672771,7.86016,-0.102322,0.19545,-0.0504946
1.16598,-0.512359,7.74763,-0.340006,0.149485,-0.0411684
0.780509,-1.35512,8.4204,-0.125637,0.0566233,-0.0462312
0.895431,-0.332794,7.81707,-0.277121,0.0977917,-0.112447
1.18034,-0.234632,7.68538,-0.439796,0.249409,-0.197049
0.574608,-0.866701,8.30548,-0.467642,0.272591,-0.190654
0.529118,-1.06781,8.32224,-0.542517,0.323352,-0.187856
0.143652,-1.60651,8.64785,-0.509609,0.312427,-0.18226
0.260968,-0.380678,8.72686,-0.689471,0.305099,-0.00759418
0.0383072,-1.86508,8.81784,-0.501349,0.227959,1.10129
2.19788,-1.55862,8.66701,-0.465243,0.198514,1.36429
0.677559,-1.4437,7.86016,-0.696399,0.586883,0.548779
-0.993593,-2.73418,8.37492,-0.86507,0.414616,-0.23502
0.466869,-3.60088,9.10514,-0.298571,0.211971,0.232888
-0.100556,-2.21942,7.95354,-0.562102,0.458848,0.0343736
-0.584185,-2.24337,7.97029,-0.609666,0.459381,-0.062219
-0.4956,-1.55862,7.16584,-0.947141,0.685874,-0.116711
-1.23062,-3.5913,8.31506,-0.66096,0.311095,-0.219965
-0.696712,-2.39181,7.32626,-0.677614,0.477634,0.0442328
-0.986411,-2.1476,6.92163,-1.10582,0.746228,-0.281518
-1.11091,-3.93607,7.762,-0.958199,0.252873,-0.287646
-0.715866,-4.17788,7.3095,-0.557173,0.0130567,0.0548913
-1.23062,-3.29442,7.04135,-0.863871,0.0710122,-0.234887
-0.64404,-3.45244,6.71095,-1.11288,0.267661,-0.215302
-0.787692,-4.86741,7.3909,-1.05373,0.194917,-0.175599
-1.27611,-3.79241,5.8634,-0.847617,-0.232222,-0.213436
-1.25456,-3.80199,5.90889,-1.32805,-0.0407687,-0.368118
-0.92895,-5.27203,6.29675,-1.31859,-0.193052,-0.393432
-0.435745,-5.73651,6.00466,-1.32099,-0.00386371,-0.255404
-0.521936,-5.81073,5.66228,-1.36229,-0.193452,-0.275522
-0.253785,-6.2776,5.24091,-1.38454,-0.0824701,-0.434201
-0.177171,-6.18901,4.7477,-1.49938,0.0643507,-0.406622
0.969651,-5.96156,4.48913,-1.81927,0.524132,-0.19998
-1.51074,-8.5066,4.57053,-1.76451,0.219698,-0.353462
-2.32238,-10.4483,5.54976,-1.23545,-0.542517,-0.246478
-0.150835,-8.26717,3.85706,-1.21813,-0.266995,-0.146288
-0.356736,-8.41083,3.64637,-1.46328,-0.0137228,-0.292709
-0.31364,-9.93354,4.03902,-1.28355,-0.315758,-0.253939
0.531512,-9.36851,3.41413,-1.10142,-0.284315,-0.153216
0.237026,-8.60715,3.23935,-1.28741,-0.196916,-0.237018
-0.100556,-10.1155,3.6751,-1.28728,-0.235819,-0.182127
0.529118,-10.4387,3.06458,-1.00017,-0.315491,-0.0267795
-0.146046,-9.80665,2.5163,-1.17617,0.067415,0.0226493
-0.270545,-10.3884,2.68151,-1.06292,-0.0118576,-0.206109
-0.414197,-10.9199,2.24337,-0.733038,-0.180528,-0.124838
0.347159,-10.5129,2.09971,-0.67375,-0.144156,-0.16360
-0.373495,-10.8098,2.09493,-0.445392,-0.134564,-0.111515
-0.00957681,-10.4531,1.89381,-0.319755,-0.127236,-0.112447
0.902614,-10.3238,2.19309,-0.413949,0.100456,-0.0157213
0.806846,-10.7619,2.03986,-0.208107,0.00826034,-0.00692802
0.758962,-10.1586,1.71664,-0.12657,0.168005,0.158412
0.713472,-9.10036,0.83797,-0.351464,0.332812,0.0862006
-0.282516,-9.03332,0.823605,-0.533591,0.0410352,-0.00239816
0.943315,-10.3645,1.56581,-0.495753,0.116311,-0.0063951
0.397437,-10.4028,0.593762,-0.277121,0.00466309,-0.0988576
-0.251391,-9.56723,0.648829,-0.311361,-0.0814043,-0.0984578
-0.162806,-9.63427,0.421379,-0.439396,-0.0631516,-0.190787
0.622492,-10.805,0.976834,-0.152949,-0.214635,-0.22676
0.35913,-9.65821,0.545878,-0.17813,0.0173201,-0.059954
0.545878,-10.3022,0.881066,-0.18639,0.124171,0.0415681
