acce_x,acce_y,acce_z,gyro_x,gyro_y,gyro_z
0.091064,-0.202637,0.853516,2.29771,-3.908397,-4.10687
0.077637,-0.199219,0.848877,2.885496,-6.442748,-4.549618
0.08667,-0.189209,0.84082,2.801527,-6.328244,-4.549618
0.08374,-0.187012,0.822021,1.19084,-6.259542,-3.671756
0.102295,-0.172363,0.813965,-1.832061,-3.80916,-3.129771
0.10791,-0.171387,0.800293,-4.877862,-0.671756,-2.396947
0.109375,-0.175293,0.802979,-7.931298,1.732824,-1.839695
0.108887,-0.168945,0.798828,-11.274809,2.908397,-1.435115
0.102051,-0.173828,0.79126,-15.129771,1.801527,-1.374046
0.091797,-0.170166,0.776611,-20.022902,0.183206,-0.633588
0.07959,-0.17334,0.774414,-27.908398,-2.938931,1.59542
0.078125,-0.15918,0.735352,-37.931297,-4.061069,2.954198
0.083252,-0.155273,0.720215,-49.305344,-4.198473,4.160306
0.084717,-0.145752,0.703613,-61.862595,-0.290076,6.938931
0.086914,-0.144043,0.685791,-77.015266,6.908397,7.59542
0.069824,-0.157471,0.645996,-96.267174,3.290076,11.053435
0.073975,-0.172363,0.661377,-118.106873,-0.175573,14.664123
0.099121,-0.204834,0.660156,-137.656494,-1.648855,15.908397
0.101562,-0.240479,0.669189,-151.862595,-3.282443,15.793893
0.103516,-0.312256,0.700195,-153.396942,-3.480916,15.122137
0.124512,-0.356934,0.766113,-146.229004,2.847328,11.259542
0.11377,-0.415283,0.849854,-132.167938,5.541985,6.755725
0.06665,-0.460693,0.915771,-117.664124,6.442748,5.198473
0.039307,-0.481689,0.941406,-104.183205,4.473282,5.526718
0.010254,-0.50415,0.974854,-93.290077,2.274809,6.458015
0.00708,-0.519287,0.970947,-84.488548,-1.709924,6.969466
0.012207,-0.515381,0.959473,-76.801529,-5.022901,6.839694
0.035156,-0.510986,0.911377,-68.893127,-6.938931,5.923664
0.045166,-0.517334,0.898682,-61.64122,-10.427481,4.053435
0.050537,-0.507324,0.875732,-58.0229,-13.854961,0.877863
0.047119,-0.500977,0.825195,-58.068703,-19.366413,-1.778626
0.047852,-0.467773,0.769043,-61.427483,-23.923664,-2.10687
0.048584,-0.458252,0.73291,-63.305344,-26.977098,-0.89313
0.063721,-0.433594,0.718018,-63.625954,-24.526718,0.763359
0.052002,-0.426514,0.697266,-67.480919,-24.099237,3.694656
0.077393,-0.427246,0.678467,-72.755722,-20.083969,6.282443
0.101074,-0.423828,0.672607,-77.213737,-12.923664,9.305344
0.094727,-0.43042,0.674316,-79.442749,-8.351145,14.916031
0.131592,-0.445557,0.686523,-76.404579,1.435115,18.931297
0.153564,-0.480225,0.721436,-68.03817,10.839695,20.290077
0.147461,-0.526123,0.784424,-60.145039,14.954199,19.022902
0.138428,-0.551025,0.80835,-56.076336,13.488549,14.679389
0.127686,-0.565918,0.817871,-52.862595,7.320611,7.78626
0.106445,-0.575195,0.815918,-48.267174,1.29771,-0.282443
0.122314,-0.553223,0.795166,-44.625954,-7.442748,-7.885496
0.108643,-0.565918,0.77002,-42.526718,-13.267176,-13.519084
0.114014,-0.560791,0.726807,-43.671757,-16.908398,-16.641222
0.116211,-0.536133,0.651367,-49.32061,-18.396946,-17.519083
0.128418,-0.517822,0.638184,-55.534351,-13.389313,-14.801527
0.108398,-0.532959,0.644287,-61.664124,-6.366412,-11.503817
0.114502,-0.530762,0.639404,-68.480919,3.946565,-6.725191
0.088867,-0.534424,0.646729,-70.984734,10.198473,-0.656489
0.068115,-0.564941,0.680908,-71.984734,15.068703,4.51145
0.062744,-0.582031,0.685059,-69.885498,17.045801,10.076336
0.062256,-0.611816,0.715332,-64.687019,16.954199,12.335877
0.067383,-0.642334,0.761963,-58.473282,13.687023,10.816793
0.067871,-0.661621,0.775391,-50.648853,8.633588,7.885496
0.076172,-0.669922,0.790039,-41.335876,4.10687,4.442748
0.095215,-0.678467,0.803223,-33.419846,-0.145038,-1.030534
0.104004,-0.675537,0.789062,-28.229008,-3.480916,-6.732824
0.108887,-0.660645,0.748779,-25.931297,-5.19084,-10.015267
0.122803,-0.639893,0.707275,-26.167938,-4.977099,-12.763359
0.128906,-0.626709,0.683838,-26.396946,-2.931298,-12.961832
0.144775,-0.561768,0.616943,-34.969467,-1.374046,-12.076336
0.119873,-0.595215,0.635254,-36.34351,2.725191,-9.21374
0.102783,-0.603027,0.626953,-37.969467,6.549618,-7.076336
0.087402,-0.594238,0.605225,-41.244274,9.564885,-3.312977
0.055664,-0.613037,0.610107,-39.167938,8.564885,1.21374
0.061279,-0.631348,0.623291,-30.656488,10.160305,3.450382
0.057129,-0.608887,0.589844,-33.946564,9.450381,8.038168
0.062988,-0.643555,0.631104,-38.526718,11.526717,10.007633
0.055664,-0.669922,0.659912,-37.793892,11.251908,10.961832
0.080322,-0.682129,0.671875,-37.832062,11.816793,8.702291
0.113037,-0.699463,0.678955,-35.992367,10.839695,3.206107
0.109131,-0.694336,0.690186,-31.267176,7.10687,-4.145038
0.115723,-0.679688,0.65332,-29.534351,4.145038,-9.549619
0.103516,-0.691162,0.669678,-23.664122,1.114504,-14.129771
0.081543,-0.690186,0.651611,-20.267176,-1.694656,-16.595419
0.06958,-0.687988,0.642578,-18.496183,-2.129771,-16.541985
0.049072,-0.661865,0.614502,-20.145039,-1.091603,-11.496183
0.074219,-0.657959,0.623535,-19,3.114504,-6.480916
0.096436,-0.677734,0.647217,-18.580153,9.763359,-2.496183
0.086426,-0.678955,0.629883,-17.595419,15.351145,1.70229
0.100586,-0.675537,0.624023,-18.404581,19.137405,3.137405
0.103516,-0.699951,0.641357,-19.755726,20.328245,1.580153
0.098633,-0.686523,0.613281,-19.564886,16.503817,-1.305344
0.102783,-0.693115,0.609131,-19.587786,13.603053,-5.732824
0.105469,-0.689453,0.60083,-17.908398,9.488549,-10.465649
0.109131,-0.691406,0.602783,-16.251909,7.374046,-15.099236
0.092041,-0.693359,0.604492,-14.221375,5.396946,-17.587786
0.08667,-0.689941,0.591797,-13.221375,5.427481,-18.862595
0.079102,-0.69165,0.599609,-12.816793,6.91603,-18.175573
0.055664,-0.70166,0.600098,-12.923664,8.679389,-15.740458
0.028564,-0.699219,0.598633,-13.427481,9.488549,-12.122137
0.032959,-0.697998,0.600342,-14.587787,11.885496,-8.015267
0.043213,-0.703857,0.578613,-16.587786,13.755725,-4.801527
0.03833,-0.706543,0.579346,-18.015266,14.122137,-3.557252
0.044922,-0.704346,0.563721,-19.526718,12.984733,-3
0.066406,-0.688965,0.543701,-21.717558,13.877863,-2.923664
0.086426,-0.700439,0.560547,-21.755726,14.847328,-4.854962
0.070068,-0.685791,0.572021,-22.435114,13.099236,-6.389313
0.069824,-0.697021,0.561768,-21.267176,10.984733,-7.717557
0.0625,-0.679199,0.527344,-25.045801,8.129771,-7.221374
0.092529,-0.692627,0.5625,-26.152672,8.21374,-9.832061
0.095947,-0.693359,0.554199,-27.114504,7.862596,-11.908397
0.078857,-0.675049,0.524902,-30.824427,6.648855,-12.748092
0.078613,-0.691406,0.550537,-31.709923,7.114504,-13.38168
0.072266,-0.705078,0.55542,-33.412212,6.450382,-13.80916
0.080566,-0.703857,0.539307,-36.587788,5.374046,-13.610687
0.077393,-0.698242,0.541748,-37.671757,5.007634,-13.396947
0.072754,-0.6875,0.490967,-44.389313,5.396946,-12.122137
0.101318,-0.698975,0.518799,-47.770992,9.045801,-12.206107
0.100098,-0.715088,0.505859,-52.396946,11.549619,-12.549619
0.099365,-0.725098,0.499268,-53.465649,12.641221,-13.564885
0.098389,-0.731445,0.512207,-53.106869,12.748092,-15.167939
0.093506,-0.745605,0.504395,-54.572517,11.030535,-17.015266
0.114014,-0.757812,0.522949,-57.129772,11.702291,-19.427481
0.120605,-0.77124,0.519287,-59.70229,13.320611,-22.389313
0.094971,-0.78125,0.534668,-57.664124,14.503817,-25.549618
0.054688,-0.796387,0.544678,-57.725189,12.465649,-24.007633
0.042236,-0.803223,0.548584,-56.9771,9.854961,-23.664122
0.029297,-0.811035,0.520996,-55.419846,5.679389,-21.396946
0.030762,-0.812988,0.523926,-53.480915,3.374046,-18.938931
0.049561,-0.819824,0.496582,-32.251907,8.496183,-2.114504
0.034424,-0.713135,0.430908,-51.29771,12.152672,-10.519084
0.010986,-0.827637,0.504639,-48.900764,8.427481,-6.954198
0.061035,-0.865479,0.538086,-32.076336,15.160305,-5.816794
0.034668,-0.797119,0.466309,-43.832062,15.526717,-1.618321
0.069824,-0.802734,0.468506,-48.183205,13.870229,-1.099237
0.111328,-0.823975,0.490479,-43.190838,14.114504,-2.572519
0.115967,-0.811035,0.495117,-45.832062,13.977099,-5.450382
0.072021,-0.840576,0.517822,-39.526718,9.923664,-8.610687
0.062256,-0.856445,0.501709,-34.122139,3.381679,-11.694656
0.067139,-0.821045,0.475586,-30.557251,1.625954,-12.656488
0.087646,-0.868896,0.52417,-25.030535,-1.496183,-12.587787
0.063721,-0.845459,0.467529,-23.717558,-4,-11.572519
0.066406,-0.823486,0.454102,-24.641222,-2.175573,-8.854961
0.085449,-0.844727,0.5,-21.748091,1.519084,-6.290076
0.100098,-0.834961,0.461182,-24.236641,7.335878,-4.687023
0.088379,-0.834473,0.461182,-28.908398,9.343512,-3.51145
0.092041,-0.822998,0.422607,-31.480917,11.206107,-2.259542
0.083984,-0.815918,0.416504,-29.083969,10.725191,-0.89313
0.066162,-0.84668,0.457275,-25.389313,7.908397,-2.541985
0.060547,-0.853516,0.451416,-23.236641,2.854962,-4.51145
0.078369,-0.860107,0.45874,-19.717558,-0.320611,-5.778626
0.08374,-0.87207,0.478271,-15.671756,-0.129771,-7.503817
0.075439,-0.882812,0.466797,-14.419847,-0.519084,-7.839694
0.071777,-0.869629,0.460449,-15.015267,-1.175573,-8.007633
0.085938,-0.87207,0.454834,-14.648855,-0.244275,-9.083969
0.08667,-0.847656,0.407715,-18.183207,0.839695,-8.068703
0.081787,-0.832275,0.399902,-20.251909,1.137405,-7.229008
0.063232,-0.827637,0.388428,-22.70229,1.236641,-5.389313
0.058105,-0.836426,0.391357,-23.916031,1.770992,-1.862595
0.059082,-0.843506,0.409912,-24.977098,3.236641,1.053435
0.065186,-0.858154,0.430908,-25.931297,4.908397,2.167939
0.084961,-0.855225,0.400391,-29.137405,5.129771,2.442748
0.094482,-0.852783,0.406494,-30.748091,5.29771,1.236641
0.104248,-0.855713,0.397217,-31.442749,4.343512,-0.885496
0.100586,-0.858643,0.386963,-32.603054,1.496183,-3.832061
0.124756,-0.846924,0.364258,-32.229008,-1.458015,-6.854962
0.070312,-0.851562,0.368652,-31.534351,-4.312977,-7.847328
0.05957,-0.87207,0.388428,-31.80916,-6.48855,-7.732824
0.082275,-0.86792,0.38501,-30.977098,-5.137404,-6
0.07373,-0.880127,0.411621,-29.251909,-3.473282,-3.458015
0.084229,-0.88501,0.422119,-30.022902,-0.427481,-1.343511
0.095703,-0.88623,0.41626,-31.847328,1.618321,-0.496183
0.101807,-0.888428,0.401123,-31.923664,2.770992,-0.335878
0.118896,-0.882812,0.407471,-31.007633,4.755725,-1.206107
0.114746,-0.873047,0.394287,-31.465649,5.793893,-3.198473
0.101562,-0.869873,0.362305,-33.389313,5.38168,-5.870229
0.102783,-0.858154,0.327637,-35.732826,3.80916,-7.473282
0.084229,-0.856201,0.309814,-39.519085,2.89313,-8.442748
0.083252,-0.854248,0.303711,-39.61832,2.541985,-7.053435
0.076904,-0.864014,0.301758,-39.770992,2.022901,-5.671756
0.06665,-0.88916,0.336914,-38.557251,2.496183,-4.122138
0.053223,-0.907471,0.360352,-39.061069,2.114504,-2.40458
0.068359,-0.904297,0.344238,-40.282444,4.290076,-0.465649
0.061523,-0.925537,0.372559,-38.549618,5.824428,2.076336
0.057617,-0.93335,0.375,-36,6.038168,3.916031
0.060303,-0.947266,0.366943,-34.137405,4.038168,4.145038
0.072998,-0.929199,0.332764,-34.610687,1.305344,4.091603
0.077637,-0.913818,0.319824,-32.839695,-0.389313,3.312977
0.080078,-0.90332,0.280029,-33.259541,-0.099237,2.564885
0.086426,-0.898193,0.29248,-33.030533,0.549618,1.244275
0.080811,-0.898926,0.2854,-33.282444,0.923664,0.80916
0.075928,-0.887207,0.272705,-33.687023,-0.015267,1.053435
0.067627,-0.897705,0.284912,-33.564884,1.015267,1.564885
0.068359,-0.907227,0.297363,-33.083969,-0.519084,3.419847
0.084717,-0.91333,0.288086,-35.183205,0,4.038168
0.080566,-0.911133,0.286865,-37.763359,0.427481,5.061069
0.081055,-0.913086,0.291504,-38.778625,1.984733,5.59542
0.080078,-0.93042,0.30127,-40.389313,4.465649,5.832061
0.071289,-0.932373,0.273682,-43.259541,6.389313,6.427481
-0.802979,-1.05957,0.907959,-36.786259,7.282443,9.328244
0.064697,-0.98291,0.255127,-32.633587,4.740458,9.21374
0.043701,-0.966064,0.240723,-31,3.89313,9.587787
0.072998,-0.949707,0.22583,-40.412212,2.10687,3.374046
0.174561,-1.090088,0.257812,-46.694656,13.053435,9.671756
0.012451,-0.922852,0.16748,-51.763359,6.030534,10.633588
0.037842,-0.963379,0.23584,-52.465649,2.816794,9.664123
0.072266,-0.970215,0.221436,-84.351143,20.885496,9.709924
0.246338,-0.930908,0.251953,-44.099236,-6.61832,11.175572
0.115967,-0.92041,0.166748,-55.519085,-0.412214,6.748092
0.099609,-0.951416,0.19751,-59.267174,1.938931,4.374046
0.106934,-0.902588,0.110352,-77.977097,-3.603053,4.740458
-0.099609,-1.032227,0.352783,-66.71756,-0.335878,2.450382
0.136719,-1.023193,0.082275,-62.793892,-0.633588,1.900763
-0.067383,-1.070801,0.300537,-59.175571,0.610687,2.938931
0.054443,-1.018066,0.235596,-54.732826,-4.175572,1.473282
0.084473,-1.018066,0.232666,-55.854961,-1.122137,-2.19084
0.103027,-0.996582,0.231934,-54.206108,0.656489,-6.679389
0.151123,-0.978027,0.189941,-54.160305,2.648855,-12.740458
0.144287,-0.96167,0.187988,-52.175571,4.267176,-19.351145
0.138428,-0.937988,0.144775,-55.374046,9.114504,-25.725191
0.114746,-0.940918,0.144287,-51.770992,8.305344,-28.946566
0.074951,-0.945312,0.141602,-51.312977,9.992367,-30.465649
0.059326,-0.956299,0.145508,-48.893131,8.21374,-29.87023
0.039307,-0.95874,0.135742,-48.893131,6.320611,-27.862595
0.050537,-0.975586,0.134766,-49.076336,8.022901,-25.343512
0.050537,-0.982422,0.128906,-49.633587,9.007633,-23.389313
0.057129,-0.972412,0.114746,-51.175571,9.648855,-21.076336
0.065674,-0.971924,0.090332,-52.435116,9.099236,-19.61832
0.062256,-0.981201,0.083008,-51.732826,7.900764,-19.862595
0.082275,-0.9729,0.05835,-51.893131,6.267176,-20.87023
0.099365,-0.982178,0.038574,-60.900764,9.045801,-21.022902
0.156494,-0.980713,0.100098,-49.854961,10.419847,-21.862595
0.094238,-0.983887,0.02124,-52.34351,-1.732824,-21.152672
0.174805,-0.962646,0.006836,-60.419846,8.343512,-24.992367
0.112793,-1.009277,0.060791,-77.755722,16.259542,-25
0.179688,-0.985107,0.061523,-74.496185,20.740458,-26.061069
0.126221,-1.002197,0.041504,-70.297707,18.816793,-24.854961
0.080566,-1.052979,0.060303,-66.770996,18.251909,-24.51145
0.078857,-1.062988,0.068115,-66.129768,16.900763,-23.38168
0.105469,-1.047119,0.046143,-66.122139,18.404581,-24.206106
0.142578,-1.007324,-0.014893,-69.580154,18.160305,-23.572519
0.145752,-0.996582,-0.006104,-70.96183,19.931297,-25.106871
0.168457,-0.996582,-0.02832,-60.824429,23.290077,-24.80916
0.113281,-1.026855,0,-59.793892,25.709923,-26.480917
0.106934,-1.036377,0.00293,-59.076336,21.717558,-27.343512
0.105957,-1.029541,-0.007568,-57.908398,18.351145,-27.015266
0.162842,-1.11377,0.02417,-55.908398,27.671755,-26.251909
0.094727,-0.994385,-0.079346,-55.648853,27.061069,-19.923664
0.064453,-1.059814,-0.016357,-53.305344,20.832062,-21.030535
0.123291,-1.050537,-0.035889,-51.877861,18.755726,-19.038168
0.156738,-1.013184,-0.073975,-53.38168,21.274809,-18.519083
0.138672,-1.023682,-0.09375,-56.564884,20.473282,-19.068703
0.140137,-1.02417,-0.09082,-56.854961,20.916031,-19.206106
0.121826,-1.015625,-0.100586,-55.106869,18.900763,-19.572519
0.128906,-1.026367,-0.097412,-55.045803,17.221375,-20.664122
0.155762,-1.014404,-0.123535,-55.465649,16.938931,-19.770992
0.148926,-1.015625,-0.128906,-55.648853,17.12977,-20.053434
0.1521,-1.022949,-0.149414,-53.839695,14.229008,-19.564886
0.133789,-1.020264,-0.141113,-51.969467,10.038168,-20.51145
0.175537,-1.0271,-0.128662,-55.717556,8.587787,-22.045801
0.160645,-0.966064,-0.171631,-56.290077,11.068703,-17.32061
0.110352,-1.031494,-0.134521,-52.007633,6.419847,-16.816793
0.118164,-1.054199,-0.135254,-50.70229,2.015267,-17.435114
0.167236,-1.017578,-0.166992,-51.755726,1.618321,-17.87023
0.177979,-1.000977,-0.175781,-53.687023,2.160305,-18.992367
0.177002,-0.989746,-0.189209,-62.045803,-1.755725,-20.564886
0.193359,-0.99585,-0.21582,-63.564884,0.984733,-22.80916
0.19043,-1.015137,-0.126953,-57.595421,4.267176,-24.335878
0.166992,-0.991211,-0.205811,-57.244274,1.526718,-23.832062
0.170654,-1.026123,-0.177979,-55.946564,0.755725,-21
0.1875,-1.037842,-0.17334,-52.61832,-0.732824,-17.030535
0.17749,-1.089355,-0.149658,-50.717556,-0.167939,-18.709923
0.156738,-0.974121,-0.213379,-49.34351,6.534351,-5.969466
0.161865,-1.058838,-0.185059,-45.160305,3.381679,-5.251908
0.144287,-1.079834,-0.175293,-38.847328,-0.038168,-5.48855
0.220215,-1.028809,-0.202881,-37.259541,2.129771,-9.091603
0.26416,-0.990479,-0.23999,-38.267174,2.396947,-12.603053
0.22583,-0.996094,-0.24585,-36.671757,0.732824,-16.480917
0.219727,-1.006104,-0.227539,-33.488548,1.923664,-20.503817
0.188232,-1.024658,-0.22168,-30.267176,1.068702,-19.557251
0.194092,-1.008301,-0.24707,-29.923664,-1.137405,-18.374046
0.211426,-1.00415,-0.247314,-31.358778,2.244275,-18.664122
0.187012,-0.995117,-0.268311,-32.541985,1.916031,-18.167938
0.174561,-0.981934,-0.284424,-34.435116,-1.045802,-15.80916
0.166992,-0.98291,-0.297852,-37.045803,-2.984733,-14.396947
0.172852,-0.978271,-0.300293,-39.595421,-7.366412,-9.610687
0.237793,-0.961182,-0.272461,-42.427483,-0.282443,-13.572519
0.173096,-0.984619,-0.313965,-40.419846,-6.015267,-9.839695
0.178467,-0.998535,-0.302979,-38.35878,-6.946565,-9.396947
0.188232,-1.003418,-0.298096,-35.70229,-8.59542,-8.877863
0.083008,-1.003662,-0.561768,-31.877863,-12.274809,-7.244275
0.174316,-1.051025,-0.283691,-28.442749,-12.984733,-6.755725
0.207764,-1.02832,-0.279541,-27.442749,-18.122137,1.076336
0.298096,-0.997559,-0.306885,-22.839695,-11.328244,-8.198473
0.254639,-1.032715,-0.290771,-21.847328,-5.969466,-9.946565
0.234131,-1.037842,-0.269775,-20.106871,-5.076336,-9.969465
0.260986,-0.975098,-0.389893,-15.580153,-6.167939,-11.511451
0.1875,-1.018555,-0.283203,-19.335878,-4.847328,-11.839695
0.234863,-0.985352,-0.309814,-19.839695,-3.908397,-13.038168
0.230957,-0.983154,-0.32373,-21.236641,-3.977099,-14.167939
0.23877,-0.964355,-0.351318,-21.427481,-10.068703,-13.969465
0.240723,-0.974121,-0.347656,-25.534351,-5.580153,-16.038168
0.160645,-1.041016,-0.280762,-28.580153,-1.038168,-14.992367
0.187744,-0.977539,-0.342529,-29.221375,-3.381679,-11.099236
0.158936,-1.016602,-0.333984,-25.51145,-10.152672,-12.007633
0.222412,-1.009521,-0.332764,-25.526718,-9.610687,-9.122137
0.230225,-0.995117,-0.347412,-25.801527,-8.480916,-7.793893
0.22998,-1.025146,-0.341064,-23.80916,-8.992367,-6.923664
0.239014,-1.008057,-0.3479,-22.725191,-15.503817,-5.053435
0.346191,-0.976318,-0.407959,-24.022902,-9.549619,-8.824428
0.290283,-0.961914,-0.365234,-26.519083,-6.015267,-1.274809
0.160889,-1.033691,-0.35791,-28.167938,-3.877863,0.694656
0.216797,-1.010742,-0.366699,-29.244274,-1.977099,1.129771
0.210938,-1.001465,-0.391602,-29.099237,-5.267176,-4.099236
0.20166,-0.983154,-0.401855,-31.267176,-6.778626,-2.21374
0.242676,-0.933105,-0.403564,-32.404579,-5,10.091603
0.195801,-0.912842,-0.491699,-41.801525,-4.931298,3.389313
0.221191,-0.946045,-0.404541,-41.389313,-7.656488,1.51145
0.175049,-0.981201,-0.418213,-41.106869,-10.801527,-2.587786
0.195068,-0.986816,-0.401611,-40.587788,-12.160305,-3.145038
0.220215,-0.984619,-0.405029,-41.099236,-11.709924,-2.992366
0.232666,-1.004395,-0.383301,-41.442749,-10.061069,-5.099236
0.199707,-1.034668,-0.37207,-46.809162,-2.709924,-6.221374
0.24707,-0.931885,-0.433105,-49.083969,-4.80916,-4.030534
0.203125,-0.970215,-0.4104,-44.717556,-9.984733,-7.122138
0.247559,-0.974854,-0.415283,-43.427483,-7.366412,-6.251908
0.21167,-0.987305,-0.411377,-42.34351,-6.656488,-5.770992
0.191895,-1.01709,-0.403076,-38.824429,-7.541985,-5.290076
0.19873,-1.012451,-0.413086,-34.709923,-9.015267,-2.977099
0.22168,-1.007812,-0.422607,-33.694656,-9.648855,-4.465649
0.25,-0.949463,-0.47876,-34.847328,-6.328244,-1.603053
0.214355,-0.973877,-0.451172,-32.885498,-8.931297,-3.854962
0.217285,-0.989502,-0.456787,-30.236641,-11.015267,-5.755725
0.244141,-0.968018,-0.460205,-31.374046,-7.80916,-7.145038
0.245361,-0.95874,-0.470459,-33.419846,-6.656488,-7.778626
0.224121,-0.977051,-0.469482,-32.190838,-6.664122,-8.358779
0.219482,-0.970215,-0.464844,-32.732826,0.473282,6.641222
0.168457,-1.004395,-0.460449,-31.656488,-2.221374,-2.160305
0.219482,-0.985352,-0.462891,-30.740458,-1.473282,-1.152672
0.224854,-0.99292,-0.457275,-29.206106,-0.259542,1.290076
0.204834,-0.920654,-0.512939,-27.839695,1.137405,5.519084
0.166504,-0.982666,-0.481689,-24.763359,-4.633588,4.427481
0.190918,-0.989258,-0.490479,-23.694656,-5.870229,8.473283
0.225586,-0.941162,-0.503906,-26.053434,-2.51145,14.824428
0.194336,-0.960449,-0.512207,-27.312977,-5.19084,10.007633
0.205078,-0.942383,-0.526855,-28.427481,-6.351145,7.358778
0.207275,-0.931641,-0.527344,-28.847328,-8.091603,3.854962
0.203613,-0.942383,-0.521729,-29.984734,-10.725191,0.854962
0.223145,-0.942627,-0.509521,-29.175573,-10.007633,0.885496
0.226318,-0.968018,-0.499756,-27.282442,-10.549619,0.763359
0.19458,-1.024658,-0.44751,-26.48855,-8.19084,0.022901
0.219482,-1.003418,-0.469238,-23.51145,-7.847328,1.290076
0.216553,-1.000732,-0.471436,-18.221375,-11.343512,0.061069
0.265625,-0.968018,-0.490967,-15.358779,-7.587786,1.458015
0.236328,-0.956299,-0.474854,-14.167939,-5.778626,0.763359