acce_x,acce_y,acce_z,gyro_x,gyro_y,gyro_z
0.085693,-0.410156,0.794678,-11.259542,0.656489,-0.916031
0.091553,-0.406738,0.802490,-9.381680,-0.763359,-1.458015
0.082031,-0.408203,0.798584,-9.259542,-2.541985,-1.503817
0.086914,-0.403809,0.789062,-10.259542,-3.908397,-1.396947
0.093018,-0.390869,0.779785,-10.938931,-3.862595,-1.305344
0.113525,-0.405029,0.798340,-11.038168,-2.908397,-1.297710
0.112549,-0.401855,0.804199,-10.511451,-2.534351,-2.541985
0.109619,-0.390625,0.781494,-12.160305,-1.557252,-2.442748
0.115234,-0.388184,0.768066,-13.557252,1.396947,-0.564885
0.103760,-0.393311,0.769775,-14.816793,2.946565,0.900763
0.106934,-0.401611,0.776855,-16.396946,5.099236,1.335878
0.105469,-0.397949,0.754883,-19.885496,6.328244,1.748092
0.094482,-0.392822,0.764648,-22.557251,5.557252,2.801527
0.080811,-0.419922,0.782959,-22.755726,4.106870,2.740458
0.082275,-0.421387,0.784180,-21.572519,1.541985,2.885496
0.081787,-0.422607,0.790527,-20.221375,-1.419847,2.625954
0.089844,-0.447998,0.791504,-14.702291,-2.595420,1.381679
0.096924,-0.445312,0.826416,-8.992367,-4.946565,0.045802
0.096191,-0.453857,0.830322,-5.061069,-7.816794,-1.740458
0.098633,-0.432129,0.802002,-3.610687,-9.351145,-3.045802
0.099609,-0.416260,0.773926,-3.114504,-10.282443,-3.167939
0.107422,-0.422852,0.773926,-3.916031,-8.290076,-2.007634
0.119141,-0.417969,0.770020,-4.916030,-4.633588,-1.076336
0.130127,-0.411133,0.763916,-8.038168,-0.572519,-0.961832
0.113281,-0.403320,0.743652,-11.442748,1.358779,-0.732824
0.097900,-0.403564,0.743896,-16.335878,2.251908,0.335878
0.093750,-0.394287,0.727295,-21.488550,2.297710,0.977099
0.078613,-0.406738,0.744873,-24.526718,0.740458,1.122137
0.088867,-0.437744,0.752930,-23.000000,-0.816794,0.641221
0.100098,-0.447754,0.783936,-19.900763,-1.725191,-0.709924
0.106934,-0.451172,0.783691,-17.496183,-0.832061,-2.229008
0.114258,-0.446289,0.781738,-14.885496,0.679389,-2.816794
0.104248,-0.458008,0.811523,-10.274809,0.702290,-2.969466
0.110596,-0.458984,0.819336,-8.152672,2.412214,-2.984733
0.111816,-0.445068,0.779297,-8.320611,3.625954,-2.748092
0.097656,-0.435547,0.755127,-10.740458,3.687023,-1.625954
0.092529,-0.438232,0.741455,-14.496183,2.068702,0.251908
0.085693,-0.432129,0.735107,-16.007633,0.480916,0.755725
0.088623,-0.435791,0.729004,-19.435114,0.190840,0.106870
0.092285,-0.425049,0.714355,-25.564886,-0.045802,0.503817
0.073242,-0.418457,0.700684,-33.206108,-0.442748,2.763359
0.068604,-0.401367,0.694580,-46.183205,-0.496183,6.839694
0.069580,-0.405029,0.664551,-61.778625,2.641221,10.389313
0.073730,-0.400635,0.616699,-81.679390,5.412214,14.137404
0.058105,-0.403320,0.586670,-102.160309,7.083970,19.183207
0.067383,-0.408203,0.566895,-124.541985,9.839695,23.671755
0.074707,-0.420166,0.535156,-147.946564,14.893129,29.000000
0.138184,-0.492676,0.563721,-147.488556,25.259542,27.435114
0.145508,-0.604492,0.763184,-123.213737,28.709923,19.908398
0.123535,-0.656738,0.870850,-96.572517,31.061069,15.007633
0.050049,-0.623291,0.827881,-85.610687,23.641222,12.931297
0.030029,-0.615967,0.780273,-84.938934,19.549618,11.717557
0.034668,-0.616943,0.732666,-86.251907,16.854961,11.335877
0.028564,-0.640869,0.729004,-85.801529,15.603053,12.625955
0.044189,-0.648926,0.718262,-84.343513,16.885496,12.687023
0.064697,-0.663818,0.708252,-81.954201,19.053434,12.068703
0.046631,-0.673096,0.735352,-77.137405,16.847328,10.717557
0.046387,-0.670166,0.716064,-76.748093,13.977099,9.541985
0.039307,-0.657227,0.661133,-83.480919,12.854961,9.763359
0.031250,-0.631592,0.592285,-94.412216,14.503817,10.931297
0.000244,-0.627686,0.577148,-106.000000,9.465649,12.709924
-0.007812,-0.637207,0.542236,-113.931297,7.068702,14.496183
0.005371,-0.646240,0.540039,-120.129768,4.809160,17.916031
0.020264,-0.677002,0.566162,-115.923668,4.938931,17.480917
0.043457,-0.736816,0.644531,-100.259544,6.473282,14.625955
0.035645,-0.759033,0.689941,-81.038170,3.404580,11.679389
0.030762,-0.807373,0.698730,-64.068703,5.305344,7.854962
0.025146,-0.775146,0.684814,-52.458015,7.122138,4.732824
0.011475,-0.773682,0.703857,-46.236641,6.015267,4.175572
-0.004639,-0.779297,0.675049,-43.580154,4.312977,5.305344
-0.003906,-0.764648,0.637451,-44.122139,2.557252,7.648855
-0.008301,-0.748047,0.588379,-48.282444,0.839695,9.198473
0.000000,-0.737305,0.564941,-53.938931,-2.335878,10.404580
-0.000732,-0.708252,0.496582,-65.900764,-6.396946,11.396947
-0.010254,-0.693115,0.457031,-82.305344,-9.854961,12.496183
-0.013184,-0.666504,0.415283,-101.175575,-13.122137,13.274809
0.004639,-0.657715,0.365479,-116.580154,-14.786260,17.450382
0.029053,-0.687256,0.400879,-125.923668,-14.007633,20.427481
0.039795,-0.721924,0.415039,-131.977097,-10.992367,22.511450
0.061035,-0.756836,0.431152,-131.458008,-1.419847,21.091602
0.104736,-0.807861,0.512695,-117.022903,9.022901,17.549618
0.064453,-0.865234,0.632568,-92.190842,8.854961,14.824428
0.031982,-0.895508,0.604248,-77.618324,11.076336,11.732824
0.011475,-0.874756,0.547607,-75.122139,8.022901,10.053435
-0.011719,-0.862549,0.510498,-78.519081,3.274809,7.213740
-0.018799,-0.857910,0.481934,-81.099236,-3.656489,4.969466
-0.008789,-0.862549,0.461426,-83.251907,-9.824428,3.137405
0.016602,-0.847412,0.423340,-86.954201,-13.152672,0.816794
0.048096,-0.856445,0.394287,-86.496185,-12.129771,-4.511450
0.053955,-0.865723,0.385254,-92.038170,-9.931297,-7.366412
0.049072,-0.833740,0.378418,-93.564888,-7.717557,-3.839695
0.029053,-0.813477,0.365723,-102.221375,-5.885496,1.656489
0.020996,-0.848145,0.359863,-102.664124,-4.587786,3.206107
0.026855,-0.870117,0.397461,-95.977097,-4.152672,4.442748
0.023438,-0.907715,0.427246,-86.068703,-3.190840,3.763359
0.030029,-0.927734,0.435059,-73.603050,-0.587786,1.206107
0.033203,-0.961670,0.458740,-61.412212,1.580153,-1.114504
0.020264,-0.974365,0.469238,-50.480915,-0.580153,-2.274809
0.020996,-0.970947,0.450439,-44.076336,-3.786260,-3.870229
0.005859,-0.973145,0.421387,-41.832062,-7.709924,-4.755725
0.013184,-0.966064,0.386230,-40.664124,-10.427481,-4.198473
-0.001953,-0.950439,0.359131,-38.725189,-16.412214,-4.167939
0.016113,-0.953125,0.344727,-38.099236,-20.106871,-5.580153
0.019531,-0.935547,0.300537,-39.854961,-23.984734,-8.793893
0.032227,-0.910156,0.244141,-46.778625,-27.076336,-10.908397
0.037109,-0.906738,0.174561,-57.564884,-27.236641,-10.961832
0.024902,-0.894287,0.143555,-72.335876,-26.961832,-10.244275
0.028076,-0.873047,0.118408,-87.389313,-26.847328,-7.679389
0.009277,-0.870361,0.129395,-102.229004,-24.496183,-0.312977
0.016602,-0.912598,0.175781,-116.832062,-15.419847,7.992366
-0.000732,-0.940674,0.178955,-123.893127,-7.282443,15.587787
-0.027588,-0.937012,0.188477,-125.564888,-2.488550,22.625954
-0.033203,-0.957031,0.183350,-124.053436,1.198473,28.816793
-0.009766,-0.952637,0.173096,-116.778625,4.969466,32.229008
-0.008057,-0.980469,0.211182,-107.206108,6.152672,31.328245
-0.001953,-1.004639,0.206055,-98.305344,3.885496,24.465649
0.004639,-1.000977,0.173828,-91.702293,-0.977099,17.030535
0.014404,-1.008057,0.183105,-86.221375,-8.465649,8.328244
0.051270,-1.008545,0.171143,-81.221375,-12.038168,0.519084
0.047852,-1.023193,0.176270,-76.900764,-15.267176,-5.465649
0.047607,-1.018555,0.184082,-73.954201,-15.969465,-8.328244
0.040039,-1.017578,0.178467,-70.190842,-15.625955,-7.770992
0.008301,-1.024902,0.186768,-65.465652,-14.801527,-5.671756
0.020508,-1.032471,0.178955,-60.816795,-10.969465,-3.083969
0.006348,-1.012695,0.178223,-58.320610,-9.229008,-1.343511
0.011230,-1.002930,0.136719,-55.282444,-5.977099,1.519084
0.008545,-0.998047,0.125000,-51.076336,-4.885496,3.725191
0.010986,-0.986572,0.103271,-46.732826,-2.587786,5.022901
0.007080,-0.971436,0.078125,-44.503819,-2.213740,5.381680
-0.002930,-0.964844,0.054199,-45.053436,-3.068702,5.870229
0.029541,-0.943359,0.015869,-46.152672,-0.992366,5.343512
0.035400,-0.941406,0.007568,-48.946564,1.076336,5.717557
0.026611,-0.937988,0.005859,-51.977100,3.725191,7.091603
0.034668,-0.949219,0.017090,-53.893131,7.274809,8.091603
0.019043,-0.959473,0.023438,-55.259541,8.862596,8.473283
0.006836,-0.983398,0.010010,-57.000000,11.022901,8.229008
-0.007812,-0.990234,0.011230,-58.458015,11.259542,7.656488
-0.015869,-0.982666,0.006836,-60.244274,10.709924,8.381680
-0.013428,-0.997559,-0.009521,-60.564884,9.343512,9.259542
-0.006348,-0.988525,-0.015869,-61.412212,9.564885,9.549619
-0.004395,-0.997559,-0.012939,-61.519085,7.763359,10.366412
-0.013672,-1.000000,-0.012695,-61.114502,6.778626,11.175572
-0.012939,-0.997803,-0.032227,-60.954197,5.961832,11.877863
-0.005615,-0.989258,-0.048096,-62.541985,5.282443,12.099236
0.004150,-0.983887,-0.066650,-63.824429,4.839694,12.625955
-0.001221,-0.981445,-0.074951,-65.236641,5.106870,12.083969
0.002930,-0.981689,-0.086670,-67.740456,5.725191,11.748092
-0.008789,-0.989258,-0.079346,-70.022903,4.870229,11.129771
-0.009277,-0.998779,-0.068359,-71.343513,4.587786,11.725191
-0.008057,-1.016846,-0.070068,-70.557251,5.961832,11.122137
-0.007080,-1.021484,-0.056396,-68.396950,6.068702,11.137404
-0.010986,-1.036377,-0.074707,-67.076332,6.793893,12.015267
-0.015869,-1.041992,-0.082275,-65.343513,9.122137,12.534351
-0.014404,-1.040527,-0.089355,-64.442749,10.816793,12.511451
-0.027344,-1.037354,-0.099365,-63.732826,10.381680,12.244275
-0.016602,-1.024902,-0.116211,-64.442749,9.198473,11.847328
-0.010742,-1.007568,-0.168701,-67.305344,8.389313,10.236641
-0.003174,-0.995361,-0.190430,-69.839691,7.473282,8.633588
-0.008057,-0.986816,-0.213867,-73.122139,5.022901,6.267176
0.011963,-0.985840,-0.242676,-77.503815,5.145038,3.374046
0.010254,-0.983398,-0.245361,-82.381676,5.977099,1.587786
-0.002441,-0.992920,-0.238770,-86.213737,5.969466,0.541985
-0.016846,-1.005859,-0.230713,-89.519081,6.343512,-0.213740
-0.028564,-1.020752,-0.205566,-91.809158,7.603054,0.580153
-0.035645,-1.043457,-0.179443,-89.931297,10.740458,1.190840
-0.061768,-1.045898,-0.161865,-87.954201,10.015267,3.145038
-0.053955,-1.054443,-0.193848,-85.206108,11.167939,5.954198
-0.056396,-1.056152,-0.206299,-81.167938,11.755725,9.160305
-0.070801,-1.044678,-0.209229,-77.045799,10.404580,11.732824
-0.057373,-1.044189,-0.228027,-72.625954,10.572519,12.450381
-0.059570,-1.029541,-0.256592,-69.946564,8.854961,12.366412
-0.046387,-1.008057,-0.294678,-70.488548,7.664122,11.847328
-0.023193,-0.997559,-0.318604,-72.938934,8.427481,11.412213
-0.010742,-0.998535,-0.335449,-74.251907,10.458015,9.267176
-0.006348,-0.987305,-0.367676,-76.480919,10.015267,5.595420
-0.016602,-0.995605,-0.377686,-80.549622,8.816793,1.740458
-0.006836,-1.003174,-0.396240,-85.496185,11.244275,-2.114504
-0.024170,-1.000732,-0.385254,-87.129768,10.862596,-4.152672
-0.034912,-1.004639,-0.378174,-86.656487,9.076336,-4.022901
-0.068604,-1.024658,-0.337646,-84.053436,8.145039,-2.343511
-0.075195,-1.037109,-0.329834,-81.366409,8.274809,0.259542
-0.099854,-1.049072,-0.308350,-78.839691,8.435115,3.671756
-0.099609,-1.045654,-0.329590,-77.358780,9.725191,7.938931
-0.097168,-1.041260,-0.354004,-76.244278,10.244275,10.610687
-0.084961,-1.025391,-0.371582,-76.206108,9.427481,13.404580
-0.086914,-0.995605,-0.413574,-77.488548,8.358779,14.473283
-0.065674,-0.971436,-0.465332,-79.847328,8.198473,13.290076
-0.074707,-0.951416,-0.504150,-81.923668,4.938931,11.679389
-0.072266,-0.950439,-0.522217,-81.526718,1.572519,11.297709
-0.049316,-0.955811,-0.523926,-86.274811,1.305344,4.679389
-0.034180,-0.930420,-0.551758,-90.648857,4.267176,2.954198
-0.049805,-0.935303,-0.511719,-90.160309,3.679389,2.305344
-0.069580,-0.979248,-0.484131,-87.610687,4.015267,1.564885
-0.081787,-0.995117,-0.461426,-83.725189,4.122138,1.167939
-0.072754,-0.990967,-0.472900,-79.251907,3.923664,1.351145
-0.079102,-0.996826,-0.469482,-75.251907,3.969466,2.900763
-0.082764,-0.997314,-0.487549,-70.213737,2.687023,3.381679
-0.083984,-0.998779,-0.485840,-65.335876,0.778626,3.549618
-0.073242,-0.989258,-0.514160,-61.900764,-1.030534,3.396947
-0.080811,-0.967773,-0.531982,-62.633587,-3.152672,2.687023
-0.062988,-0.952881,-0.553223,-64.427483,-3.458015,1.877863
-0.061523,-0.936768,-0.585205,-66.053436,-3.061069,0.778626
-0.051514,-0.926514,-0.600342,-66.557251,-1.335878,-0.259542
-0.055908,-0.910156,-0.587646,-67.610687,0.442748,-0.404580
-0.048096,-0.903809,-0.624023,-65.442749,1.916031,-0.641221
-0.048340,-0.912598,-0.583008,-61.274811,4.625954,-0.908397
-0.041748,-0.927734,-0.572754,-59.755726,8.526717,-1.908397
-0.044434,-0.931152,-0.586670,-59.351147,11.251908,-1.885496
-0.050537,-0.891846,-0.612061,-56.984734,12.015267,0.320611
-0.073486,-0.928467,-0.587646,-51.068703,8.526717,-0.221374
-0.088867,-0.968994,-0.545410,-44.885498,4.557252,-1.244275
-0.049072,-0.975586,-0.553955,-41.061069,5.396946,-0.358779
-0.020752,-0.970215,-0.559814,-37.740459,9.618320,-0.114504
-0.025391,-0.955322,-0.595703,-36.213741,10.564885,-1.076336
-0.049561,-0.918945,-0.637939,-36.648853,6.122138,-4.572519
-0.033936,-0.895020,-0.672852,-38.122139,4.083970,-7.664122
-0.032959,-0.865479,-0.677002,-39.152672,2.648855,-9.557252
-0.043213,-0.863770,-0.677979,-40.900764,2.236641,-10.625955
-0.076416,-0.859131,-0.677734,-43.114502,1.038168,-10.068703
-0.080322,-0.835449,-0.696533,-46.175571,-0.290076,-7.961832
-0.101318,-0.840332,-0.682373,-48.961834,-1.503817,-4.229008
-0.103516,-0.870117,-0.674805,-51.580154,-0.183206,-0.984733
-0.082275,-0.851807,-0.677490,-51.618320,1.923664,3.587786
-0.093750,-0.835449,-0.692139,-52.106869,0.305344,7.503817
-0.063477,-0.842285,-0.718018,-55.396946,1.076336,8.870229
-0.048584,-0.817383,-0.747314,-59.534351,0.610687,8.748092
-0.034424,-0.796875,-0.785400,-64.221375,-0.488550,7.068702
-0.057373,-0.768799,-0.814941,-70.832062,-5.824428,3.312977
-0.047852,-0.774170,-0.833252,-77.297707,-8.312977,-1.038168
-0.035645,-0.791748,-0.803223,-80.961830,-10.404580,-4.694656
-0.053467,-0.789551,-0.790771,-83.358780,-12.175572,-4.656488
-0.080078,-0.856445,-0.713135,-83.503815,-13.946565,-3.618321
-0.088623,-0.933350,-0.666504,-79.412216,-14.832061,-1.893130
-0.079346,-0.931641,-0.652588,-74.488548,-12.801527,1.557252
-0.065430,-0.932861,-0.630371,-69.908394,-9.679389,6.954198
-0.044678,-0.947998,-0.649170,-65.297707,-7.946565,7.305344
-0.065430,-0.863525,-0.683594,-66.122139,-22.236641,17.129770
0.041016,-0.871094,-0.764648,-49.709923,0.297710,5.511450
-0.083984,-0.837891,-0.683105,-42.603054,-7.763359,6.183206
0.005371,-0.826172,-0.760986,-39.755726,1.511450,3.335878
-0.012695,-0.783936,-0.781738,-40.908398,4.335878,1.671756
-0.031982,-0.773682,-0.797119,-35.839695,6.404580,-1.656489
-0.076416,-0.801758,-0.766846,-29.114504,7.312977,-5.572519
-0.101807,-0.856445,-0.710205,-20.786259,8.038168,-7.404580
-0.118164,-0.821289,-0.756592,-18.763359,8.473283,-5.045802
-0.158203,-0.786621,-0.770752,-19.343512,1.267176,-2.664122
-0.132080,-0.772461,-0.798340,-24.427481,-1.206107,-2.290076
-0.056152,-0.751953,-0.862793,-26.587786,0.664122,-1.763359
-0.067383,-0.705811,-0.884277,-28.572519,-0.213740,-1.732824
-0.060547,-0.722900,-0.861572,-33.595421,3.664122,-1.496183
-0.068115,-0.726074,-0.865479,-36.221375,6.564886,-2.412214
-0.093262,-0.738770,-0.853760,-34.854961,7.603054,-2.641221
-0.118408,-0.729004,-0.850342,-36.343510,5.854962,-2.106870
-0.113037,-0.728516,-0.840576,-36.229008,5.641222,-1.160305
-0.123535,-0.716553,-0.853516,-34.557251,3.801527,-0.160305
-0.147949,-0.711914,-0.843506,-33.954197,-1.931298,0.839695
-0.126465,-0.739502,-0.819336,-31.290077,-4.465649,2.992366
-0.117432,-0.736084,-0.823242,-29.374046,-7.496183,4.763359
-0.107422,-0.736328,-0.822754,-28.854961,-7.328244,7.603054
-0.094971,-0.751953,-0.831787,-29.656488,-6.343512,9.083969
-0.097412,-0.724609,-0.845459,-26.954199,-8.114504,9.648855
-0.090576,-0.736816,-0.828857,-25.190840,-9.038168,9.068703
-0.066406,-0.775635,-0.837158,-23.496183,-6.847328,6.450382
-0.050049,-0.748779,-0.857910,-22.381680,-3.328244,4.641222
-0.038330,-0.759033,-0.841064,-19.022902,-0.854962,2.312977
-0.026855,-0.781494,-0.834473,-14.564885,0.625954,-1.923664
0.001465,-0.787109,-0.832275,-12.603053,4.801527,-6.152672
-0.009033,-0.756836,-0.837646,-10.832061,6.404580,-9.755725
-0.047363,-0.728271,-0.852295,-8.374045,5.419847,-11.274809
-0.068848,-0.715820,-0.844238,-9.511451,4.862596,-11.656488
-0.091309,-0.695557,-0.870117,-10.671756,3.030534,-11.198473
-0.122070,-0.693604,-0.852539,-9.122137,-0.702290,-8.167939
-0.153320,-0.710938,-0.869629,-8.129771,-3.854962,-4.519084
-0.151367,-0.725586,-0.832520,-6.656488,-6.801527,-0.786260
-0.113525,-0.724854,-0.864014,-5.931298,-5.053435,3.061069
-0.081543,-0.733398,-0.878662,-4.984733,-0.702290,6.702290
-0.002441,-0.768555,-0.842773,-3.404580,10.862596,7.213740
-0.035889,-0.754639,-0.844727,-1.641221,3.687023,3.572519
0.042725,-0.737061,-0.852295,1.282443,10.496183,-1.160305