acce_x,acce_y,acce_z,gyro_x,gyro_y,gyro_z
0.125977,-0.335449,0.810303,-9.702291,-1.679389,-0.595420
0.101074,-0.333740,0.820801,-9.778625,-3.603053,-0.442748
0.093262,-0.348877,0.809814,-8.778625,-6.450382,-0.793893
0.100342,-0.339844,0.827393,-9.358779,-5.099236,-0.778626
0.114502,-0.350586,0.843018,-8.816793,-4.083970,-1.106870
0.100098,-0.347412,0.831055,-7.656488,-7.183206,-0.854962
0.099854,-0.336426,0.802002,-9.488549,-6.763359,0.770992
0.097168,-0.340088,0.804199,-12.396947,-5.961832,2.770992
0.112793,-0.353271,0.797119,-13.832061,-3.328244,3.381679
0.106201,-0.346436,0.819824,-14.053435,-6.458015,3.977099
0.124512,-0.362793,0.817139,-11.465649,-6.366412,2.580153
0.131348,-0.362061,0.843262,-8.709924,-4.877862,2.137405
0.122070,-0.362061,0.839600,-6.587786,-7.206107,1.251908
0.127197,-0.351318,0.839600,-7.000000,-7.503817,1.022901
0.113525,-0.346436,0.810303,-8.587787,-4.625954,1.396947
0.117188,-0.345703,0.810059,-9.274809,-4.259542,2.251908
0.109375,-0.344727,0.783936,-10.351145,-3.320611,2.290076
0.124268,-0.334717,0.785156,-14.847328,1.366412,2.793893
0.136963,-0.338867,0.774170,-17.870230,5.374046,3.595420
0.134766,-0.363770,0.798584,-13.755725,2.045802,2.625954
0.134766,-0.384521,0.845459,-8.923664,-1.465649,0.374046
0.142334,-0.384033,0.842041,-5.396946,-4.137404,-1.702290
0.133545,-0.386230,0.838623,-2.587786,-3.167939,-2.938931
0.138428,-0.378906,0.849854,0.694656,-7.343512,-3.236641
0.154785,-0.380371,0.842041,2.198473,-0.633588,-2.801527
0.101562,-0.386230,0.819824,4.526718,-5.152672,-4.572519
0.166504,-0.351807,0.831787,1.770992,-1.801527,-3.442748
0.147461,-0.367432,0.795654,0.992366,3.175573,-3.236641
0.140381,-0.352051,0.783203,-0.679389,3.206107,-3.488550
0.147949,-0.351562,0.761719,-3.641221,7.633588,-2.167939
0.136475,-0.348145,0.748047,-6.458015,11.870229,-0.190840
0.123779,-0.331787,0.756348,-10.877863,15.427481,0.618321
0.106445,-0.346680,0.755859,-14.267176,14.343512,0.282443
0.114502,-0.336426,0.754883,-19.229008,15.122137,1.435115
0.109375,-0.343994,0.760498,-23.450382,13.389313,2.213740
0.108887,-0.343750,0.750000,-28.549618,9.854961,1.442748
0.134277,-0.347656,0.745850,-34.870228,12.335877,1.038168
0.112305,-0.354248,0.753418,-40.267174,10.786260,0.679389
0.108154,-0.357422,0.761719,-46.526718,10.992367,2.374046
0.085205,-0.367432,0.759033,-53.244274,6.587786,5.053435
0.076416,-0.345459,0.725342,-65.045799,6.442748,9.053435
0.071777,-0.371826,0.713867,-78.267174,6.404580,11.748092
0.079834,-0.359375,0.688477,-95.160309,12.053435,15.854961
0.083252,-0.364746,0.671875,-114.114502,13.862596,19.908398
0.070312,-0.382812,0.628418,-134.251907,17.427481,22.664122
0.097412,-0.400391,0.595703,-149.450378,24.213741,24.122137
0.058838,-0.446777,0.607178,-163.312973,28.587786,25.183207
0.101318,-0.461182,0.588379,-171.190842,27.625954,24.465649
0.107666,-0.535156,0.649170,-164.122131,31.267176,21.175573
0.083740,-0.589600,0.765137,-137.610687,22.259542,14.038168
0.083252,-0.617432,0.819336,-108.000000,14.839695,7.572519
0.034424,-0.627930,0.810547,-80.984734,2.740458,1.183206
0.041992,-0.616943,0.830322,-68.564888,14.160305,-0.786260
0.032471,-0.621094,0.837646,-53.648853,5.740458,-3.519084
0.093994,-0.607910,0.836182,-52.671757,9.229008,-2.687023
0.048828,-0.625488,0.810791,-47.931297,7.061069,-1.480916
0.056885,-0.622070,0.753662,-44.091602,8.587787,-1.549618
0.056885,-0.628662,0.752686,-38.099236,6.725191,-2.343511
0.105225,-0.609863,0.737305,-35.801525,13.671756,-1.763359
0.056152,-0.603760,0.696045,-37.900764,10.076336,-3.114504
0.083740,-0.575195,0.659668,-43.297710,14.694656,-1.801527
0.007812,-0.604492,0.664795,-44.419846,5.007634,-1.496183
0.023926,-0.592285,0.656982,-46.641220,-5.503817,-3.175573
0.082275,-0.599121,0.683350,-49.496181,-3.984733,-2.282443
0.090820,-0.626709,0.677979,-43.190838,-8.610687,-1.977099
0.077881,-0.631836,0.692627,-36.954197,-3.015267,-0.862595
0.061279,-0.623047,0.715576,-32.923664,-7.625954,-3.030534
0.051758,-0.635498,0.704346,-33.229008,-9.511451,-2.832061
0.057373,-0.643555,0.685791,-35.282444,-7.854962,-1.511450
0.052979,-0.634277,0.662598,-37.389313,-6.083970,0.465649
0.042725,-0.617676,0.644043,-43.343510,-4.526718,3.977099
0.040527,-0.624268,0.622559,-48.885498,-4.030534,6.488550
0.054688,-0.630127,0.613770,-52.030533,-1.648855,7.274809
0.043945,-0.632324,0.589600,-56.328243,-1.679389,7.435114
0.051025,-0.627686,0.570557,-62.419846,0.106870,7.488550
0.044434,-0.637939,0.561279,-67.526718,-2.816794,7.160306
0.050293,-0.645752,0.561768,-71.351143,-6.061069,6.145038
0.061035,-0.658447,0.566895,-73.877861,-8.206107,4.908397
0.044189,-0.667480,0.556885,-77.618324,-12.427481,5.290076
0.070557,-0.675537,0.565186,-76.740456,-10.358779,5.885496
0.074219,-0.699219,0.616943,-71.351143,-5.083970,6.183206
0.067383,-0.704346,0.621582,-68.000000,0.274809,7.618320
0.053223,-0.723389,0.620117,-69.358780,3.526718,11.038168
0.049805,-0.706543,0.563721,-74.175575,5.206107,12.480916
0.066406,-0.704102,0.549561,-80.633591,6.786260,12.305344
0.081055,-0.721680,0.550781,-90.862595,7.526718,10.099236
0.084717,-0.727539,0.513916,-104.038170,7.648855,8.297709
0.094727,-0.736572,0.502197,-114.778625,9.122137,7.832061
0.089844,-0.758789,0.488281,-122.755722,7.702290,7.290076
0.087402,-0.756592,0.474854,-126.832062,4.480916,5.564886
0.075684,-0.785156,0.483154,-124.022903,4.832061,2.847328
0.063721,-0.816895,0.543457,-113.564888,2.450382,1.122137
0.047852,-0.834717,0.551514,-103.541985,0.870229,-0.908397
0.024658,-0.832764,0.551758,-97.916031,-1.809160,-2.152672
0.028564,-0.848145,0.561279,-86.519081,-1.862595,-1.045802
0.033936,-0.864258,0.597412,-72.618324,1.366412,-0.206107
0.023682,-0.875244,0.595947,-64.320610,3.389313,2.587786
0.031738,-0.863281,0.567139,-59.419846,5.931298,5.404580
0.030518,-0.866455,0.548828,-54.152672,8.648855,7.946565
0.028320,-0.874756,0.531738,-49.832062,9.091603,9.717557
0.047119,-0.868652,0.494141,-49.175571,11.389313,10.068703
0.047852,-0.863525,0.454102,-48.480915,10.175572,9.870229
0.083008,-0.850342,0.428955,-48.946564,12.244275,9.450381
0.050537,-0.857910,0.404541,-47.885498,4.488550,6.503817
0.062012,-0.850586,0.388184,-46.900764,1.145038,4.641222
0.068604,-0.862305,0.421875,-37.007633,-1.061069,0.297710
0.073242,-0.887695,0.465576,-26.137405,-1.862595,-3.580153
0.071289,-0.882812,0.492188,-20.618320,-1.473282,-6.656488
0.057129,-0.889893,0.473145,-15.297709,-1.343511,-10.145039
0.044189,-0.890381,0.499268,-7.496183,-0.022901,-10.190840
0.037842,-0.898926,0.503906,-2.442748,4.137404,-10.343512
0.035400,-0.906494,0.471436,-1.137405,6.557252,-8.679389
0.023438,-0.871582,0.446533,-3.992366,7.007634,-3.908397
0.005371,-0.878418,0.405029,-6.526718,6.274809,-0.725191
0.031250,-0.849609,0.389160,-12.061069,8.229008,2.129771
0.017822,-0.862549,0.389648,-13.351145,6.656488,2.801527
0.020996,-0.852295,0.377197,-16.625954,6.167939,4.244275
0.022461,-0.854248,0.353760,-19.778625,5.534351,3.664122
0.024414,-0.860840,0.349854,-18.564886,0.519084,1.366412
0.035889,-0.850098,0.348633,-17.725191,-4.122138,-0.496183
0.056885,-0.842285,0.346924,-19.900763,-4.511450,-1.435115
0.057373,-0.847900,0.339844,-22.343512,-2.992366,-2.396947
0.048096,-0.852539,0.359375,-23.564886,-2.740458,-2.282443
0.056152,-0.842041,0.360596,-25.862595,0.984733,-1.320611
0.045410,-0.850830,0.363525,-25.603054,5.358778,0.625954
0.032471,-0.855957,0.381836,-26.267176,7.145038,1.877863
0.037354,-0.853516,0.361572,-31.419847,11.312977,3.885496
0.023438,-0.851318,0.345947,-30.870230,13.175572,9.778625
0.024170,-0.834961,0.318359,-36.832062,12.129771,5.213740
0.029785,-0.860596,0.355713,-35.816795,9.335877,6.290076
0.037842,-0.869385,0.351807,-36.824429,9.847328,7.053435
0.059326,-0.877686,0.353516,-36.870228,10.603053,6.427481
0.063477,-0.888672,0.379883,-35.580154,10.312977,4.572519
0.061523,-0.894287,0.382324,-36.045803,10.854961,2.564885
0.044434,-0.894531,0.352783,-38.206108,8.335877,0.198473
0.028809,-0.888428,0.334229,-41.198475,4.389313,-1.763359
0.015869,-0.881348,0.311523,-44.877861,0.480916,-4.236641
0.018555,-0.872070,0.263184,-51.419846,-2.625954,-4.702290
0.017090,-0.859863,0.228027,-60.511452,-4.458015,-3.862595
0.023193,-0.854980,0.220215,-69.816795,-3.671756,-3.122137
0.022705,-0.858398,0.221191,-77.877861,-0.274809,1.022901
0.010498,-0.863525,0.234131,-81.587784,3.053435,5.267176
0.004639,-0.887207,0.261963,-82.625954,6.816794,10.000000
0.003174,-0.900635,0.261963,-83.274811,12.603053,11.213740
0.009033,-0.914307,0.294434,-80.305344,17.877863,13.832061
0.009277,-0.944092,0.326172,-75.717560,20.717558,16.389313
-0.005127,-0.950928,0.306641,-74.694656,19.885496,17.977098
-0.000977,-0.947266,0.295898,-76.343513,17.244274,18.801527
0.017578,-0.953613,0.272461,-78.290077,15.877863,16.641222
0.056641,-0.957031,0.220947,-82.099236,13.870229,12.335877
0.069092,-0.945801,0.155762,-90.229004,11.908397,5.114504
0.082520,-0.933594,0.101807,-97.725189,10.564885,-2.267176
0.070801,-0.942627,0.117432,-95.358780,10.908397,-7.969466
0.060059,-0.960693,0.145508,-90.702293,10.969465,-12.709924
0.027588,-0.955322,0.149414,-91.007637,11.435115,-14.610687
0.016357,-0.962646,0.170654,-85.129768,11.343512,-14.809160
-0.020996,-0.983398,0.234375,-76.610687,10.549619,-12.473283
-0.037842,-1.005859,0.248291,-73.358780,10.152672,-9.671756
-0.038330,-1.005371,0.230957,-71.519081,9.702291,-7.099236
-0.040283,-1.013428,0.230957,-68.488548,11.015267,-4.320611
-0.036133,-1.013184,0.200195,-69.587784,11.748092,-0.702290
-0.035889,-0.994629,0.127197,-73.770996,11.954199,3.702290
-0.026611,-0.988281,0.074707,-79.832062,14.778625,8.229008
0.005859,-1.009277,0.045410,-79.702293,24.000000,11.160305
0.023438,-0.999023,-0.017090,-84.618324,19.450382,7.656488
-0.015381,-0.986572,-0.051758,-89.045799,20.061069,5.778626
-0.014893,-1.005371,-0.013916,-81.694656,25.900763,5.488550
-0.016846,-1.004883,0.046387,-77.000000,25.641222,6.122138
0.015625,-1.025146,0.058594,-79.419846,23.625954,6.335878
-0.020020,-1.044189,0.063232,-77.473282,16.290077,2.870229
0.029297,-1.059326,0.145996,-76.725189,13.503817,4.251908
-0.015869,-1.075684,0.136475,-67.351143,15.809160,0.832061
-0.012939,-1.083984,0.097656,-56.992367,11.351145,-1.312977
-0.021484,-1.083008,0.089844,-52.870228,9.412213,-4.900764
-0.042725,-1.071533,0.062744,-52.175571,5.923664,-7.229008
-0.024170,-1.055420,0.027100,-51.106869,12.580153,-6.305344
-0.021484,-1.061035,-0.010010,-46.816795,6.480916,-6.244275
-0.056641,-1.055664,-0.032715,-41.458015,7.641222,-4.053435
-0.059570,-1.057373,-0.045654,-37.488548,6.175572,-6.549618
0.071533,-1.010986,-0.024414,-38.091602,2.358779,-6.030534
0.023438,-1.016846,-0.004639,-38.824429,10.603053,-3.549618
0.029297,-1.035645,0.005859,-32.977100,8.648855,-5.480916
0.014893,-1.011230,-0.033936,-32.213741,5.854962,-8.961832
0.010010,-1.003174,-0.059326,-32.000000,4.450382,-11.091603
0.007568,-0.990723,-0.061523,-30.564886,3.885496,-12.511451
0.000977,-0.976318,-0.097412,-32.450382,4.236641,-13.396947
0.015381,-0.949951,-0.152344,-36.984734,7.183206,-13.068703
0.004883,-0.950195,-0.175781,-39.572517,6.931298,-12.961832
-0.022949,-0.941162,-0.221191,-46.564884,-10.366412,-12.152672
0.149902,-0.958496,-0.240723,-55.992367,8.396947,-9.977099
-0.009033,-0.988525,-0.172607,-55.351147,17.603054,-9.396947
-0.061035,-0.983154,-0.167969,-63.389313,9.282443,-5.816794
0.045654,-0.998779,-0.114502,-70.496185,20.007633,1.000000
-0.048828,-1.037354,-0.093262,-72.404579,17.603054,6.198473
-0.046631,-1.045898,-0.103027,-76.671753,14.816793,10.664123
-0.051514,-1.052734,-0.112305,-81.763359,14.450381,13.488549
-0.046143,-1.060059,-0.121826,-84.893127,16.847328,17.824427
-0.047363,-1.044189,-0.116943,-86.740456,21.381680,14.259542
-0.021484,-1.046387,-0.156494,-96.664124,13.656488,18.801527
-0.007568,-1.014404,-0.190674,-92.916031,22.053434,18.824427
0.003662,-1.069824,-0.212158,-98.190842,16.687023,15.465649
-0.011963,-1.036621,-0.225098,-102.641220,12.633588,14.106871
0.031982,-1.050293,-0.253906,-105.114502,11.679389,10.221375
0.049316,-1.085693,-0.248047,-94.267174,12.198473,5.465649
0.012939,-1.070557,-0.226562,-108.893127,16.404581,3.007634
0.033691,-1.061768,-0.223145,-105.541985,14.832061,5.824428
-0.045898,-1.059570,-0.231445,-108.961830,10.229008,6.320611
-0.041504,-1.082275,-0.218018,-110.458015,7.152672,6.587786
-0.040039,-1.067871,-0.243652,-113.977097,2.381679,7.847328
-0.027100,-1.057617,-0.292236,-116.580154,1.351145,7.801527
-0.005127,-1.052979,-0.305908,-109.175575,6.580153,4.396946
-0.006348,-0.990234,-0.351318,-112.167938,9.259542,6.740458
-0.025879,-0.989746,-0.367188,-115.091606,6.061069,8.381680
-0.013916,-1.007080,-0.356934,-111.435112,6.351145,11.572519
-0.040283,-1.015625,-0.347900,-104.580154,4.480916,14.366412
-0.058594,-1.023682,-0.333008,-97.030533,3.305344,17.167938
-0.044678,-1.025391,-0.332764,-93.595421,5.213740,18.862595
-0.028320,-1.038574,-0.341309,-89.160309,9.564885,18.259542
-0.014404,-1.033691,-0.341797,-83.511452,12.190840,16.687023
-0.021484,-1.003418,-0.370850,-79.595421,12.183207,14.801527
-0.018555,-0.985840,-0.398438,-74.038170,11.175572,11.595420
-0.016357,-0.954102,-0.424805,-67.938934,11.923664,7.656488
-0.012695,-0.927002,-0.423096,-61.664124,10.358779,3.206107
-0.009277,-0.897217,-0.456543,-60.435116,11.473283,-0.076336
-0.020508,-0.890625,-0.465820,-59.908398,9.679389,-2.236641
-0.024170,-0.893555,-0.468262,-58.106869,9.839695,-5.236641
-0.016357,-0.907959,-0.475830,-56.099236,11.106871,-6.931298
-0.020264,-0.939941,-0.469971,-53.068703,12.656488,-8.419847
-0.020264,-0.958984,-0.448730,-49.641220,13.862596,-9.389313
-0.035889,-0.988281,-0.454834,-46.000000,13.099236,-8.442748
-0.036377,-1.004395,-0.432861,-41.259541,13.824428,-7.473282
-0.049072,-1.017334,-0.417725,-36.114502,13.740458,-5.343512
-0.052734,-1.019287,-0.429199,-32.854961,14.206107,-3.625954
-0.046387,-1.010254,-0.459961,-30.450382,14.343512,-3.961832
-0.048096,-0.958740,-0.499756,-28.748091,9.618320,-3.343511
-0.036621,-0.936035,-0.518799,-29.343512,6.839694,-4.496183
-0.031982,-0.947266,-0.528076,-29.206106,4.862596,-5.656488
-0.047607,-0.936035,-0.517578,-28.160305,1.564885,-4.312977
-0.052002,-0.959473,-0.507324,-26.916031,-1.198473,-3.312977
-0.057373,-0.975830,-0.484619,-24.305344,-4.832061,-2.290076
-0.040527,-0.977783,-0.491699,-21.412214,-6.129771,-1.877863
-0.041748,-0.963379,-0.529541,-20.396946,-4.000000,-0.725191
-0.053955,-0.925049,-0.632812,-22.610687,-10.549619,-1.961832
0.084473,-0.926270,-0.566406,-24.274809,-4.564886,-2.335878
0.024658,-0.922607,-0.636963,-30.068703,-3.916031,-2.244275
0.039795,-0.930664,-0.623779,-33.824429,4.893130,-4.251908
-0.013916,-0.927002,-0.628174,-37.702290,4.694656,-4.709924
0.010498,-0.906250,-0.636963,-45.488548,9.106871,-5.030534
-0.010986,-0.924072,-0.631836,-50.458015,11.068703,-5.351145
-0.022949,-0.915771,-0.632568,-56.091602,10.664123,-5.190840
-0.042969,-0.933105,-0.597168,-60.580154,7.809160,-6.175572
-0.046875,-0.945312,-0.579346,-61.129772,6.877862,-3.824427
-0.074707,-0.957275,-0.555176,-58.488548,2.870229,-3.687023
-0.069824,-0.969482,-0.563721,-58.503819,1.977099,-3.381679
-0.058105,-0.963867,-0.580811,-54.618320,-1.541985,-3.045802
-0.055908,-0.944092,-0.606445,-54.442749,-4.045802,-3.236641
-0.031982,-0.898926,-0.662598,-62.572517,-7.702290,-1.938931
-0.056396,-0.874268,-0.704834,-60.389313,2.671756,-1.633588
-0.062988,-0.903809,-0.708252,-74.404579,-10.099236,0.954198
-0.022217,-0.871582,-0.637451,-66.748093,0.251908,2.305344
-0.058594,-0.916992,-0.691406,-68.717560,0.740458,4.152672
-0.058350,-0.917236,-0.655029,-70.480919,-4.091603,6.305344
-0.073975,-0.892090,-0.609619,-69.030533,-1.603053,8.282443
-0.065186,-0.937988,-0.621582,-65.206108,-3.198473,8.404580
-0.016357,-0.905518,-0.643311,-61.427483,-1.687023,8.534351
-0.007568,-0.898926,-0.636719,-56.175571,-1.893130,7.526718
-0.000977,-0.896729,-0.642822,-55.786259,-4.725191,3.916031
0.041504,-0.881104,-0.645264,-50.221375,2.587786,0.725191
0.141113,-1.002197,-0.621094,-41.305344,2.839695,-0.862595
0.015625,-0.875732,-0.602539,-34.656490,2.358779,-3.213740
0.005859,-0.868408,-0.636230,-31.419847,-0.160305,-7.053435
0.020752,-0.854248,-0.637939,-30.221375,2.572519,-11.091603
0.005127,-0.924072,-0.674316,-26.358778,3.664122,-13.267176
0.001709,-0.840576,-0.661865,-22.656488,1.687023,-14.503817
-0.004150,-0.841553,-0.670654,-23.549618,2.702290,-15.343512
-0.011475,-0.802002,-0.726318,-26.625954,2.312977,-14.725191
-0.023926,-0.787354,-0.742920,-30.587786,-0.366412,-13.992367
-0.022217,-0.801025,-0.750732,-31.297710,-0.259542,-12.977099
-0.048584,-0.826660,-0.734619,-32.778625,-1.839695,-11.931297