acce_x,acce_y,acce_z,gyro_x,gyro_y,gyro_z
0.677246,0.058105,0.757324,-12.091603,-4.603054,3.610687
0.746094,0.146973,0.870850,-15.961832,-0.335878,5.717557
0.735352,0.119629,0.791016,-12.122137,0.198473,3.160305
0.742432,0.138428,0.802490,-11.183207,-1.274809,0.702290
0.716309,0.154541,0.750244,-12.404580,-0.824427,-1.480916
0.706055,0.157715,0.750000,-10.564885,-5.427481,-1.687023
0.721680,0.166016,0.749023,-10.099236,-6.793893,-2.656489
0.736572,0.175049,0.749268,-15.549619,-3.236641,-2.114504
0.752441,0.158447,0.771973,-14.045801,-1.885496,-2.404580
0.732910,0.157715,0.782715,-10.862596,-4.190840,-1.564885
0.721436,0.180176,0.784180,-15.343512,-3.679389,1.312977
0.713867,0.178955,0.776611,-29.351145,0.541985,4.488550
0.705566,0.169434,0.752686,-31.564886,-0.755725,6.328244
0.716797,0.177734,0.721191,-38.015266,0.343511,8.549619
0.731689,0.191895,0.658936,-49.564884,5.465649,12.305344
0.731201,0.175049,0.772705,-57.977100,5.465649,14.244275
0.759766,0.145508,0.718994,-70.251907,6.259542,17.755726
0.689209,0.174805,0.603027,-88.167938,17.419847,21.114504
0.771240,0.144043,0.669189,-98.061066,16.091602,27.007633
0.727539,0.139648,0.709961,-110.099236,11.870229,31.404581
0.712158,0.109619,0.740967,-119.335876,14.022901,29.824427
0.757568,0.066895,0.726562,-120.679390,15.839695,32.748093
0.762939,0.102051,0.824463,-118.725189,18.549618,33.702290
0.723877,0.071777,0.727539,-116.671753,16.259542,30.351145
0.792236,0.007812,0.890625,-115.931297,10.488549,31.320610
0.692871,-0.032715,0.872559,-113.045799,5.641222,29.931297
0.700928,-0.032227,0.769043,-113.198471,3.778626,28.648855
0.719482,-0.082764,0.791748,-110.603050,2.175573,25.694656
0.742188,-0.114990,0.761963,-109.175575,4.267176,20.793894
0.757812,-0.118896,0.764404,-106.396950,8.587787,17.412214
0.745605,-0.122314,0.792725,-100.305344,11.633588,15.297709
0.714600,-0.135742,0.774902,-94.992363,9.656488,12.068703
0.672852,-0.107422,0.746826,-93.725189,7.114504,10.183207
0.651123,-0.114502,0.700684,-90.633591,2.671756,10.793893
0.651123,-0.116455,0.691162,-84.015266,-2.900763,11.526717
0.686035,-0.117920,0.669434,-82.106873,-3.404580,12.954199
0.704102,-0.083008,0.667236,-105.366409,16.801527,18.435114
0.636719,-0.176270,0.732666,-76.320610,4.145038,18.396946
0.661377,-0.159912,0.629395,-71.511452,2.007634,19.335878
0.659668,-0.112061,0.625977,-72.404579,2.809160,23.648855
0.660400,-0.133057,0.610596,-68.503815,0.358779,24.564886
0.687256,-0.135010,0.585693,-66.519081,-0.709924,23.175573
0.714844,-0.114746,0.568848,-67.908394,3.625954,22.961832
0.713135,-0.103271,0.543701,-68.847328,5.961832,23.984734
0.695557,-0.084473,0.460693,-72.793892,8.717557,21.961832
0.735352,-0.078857,0.405273,-81.992363,17.274809,23.366413
0.710449,-0.094482,0.370850,-88.702293,24.717558,27.358778
0.687500,-0.137939,0.416504,-89.190842,29.282442,31.358778
0.647461,-0.177734,0.547852,-91.236641,29.450382,33.755726
0.611572,-0.209229,0.591553,-90.625954,28.656488,36.106869
0.581055,-0.251953,0.612305,-89.564888,25.755726,39.091602
0.550781,-0.300537,0.595459,-83.000000,19.625954,39.244274
0.577393,-0.308594,0.583984,-78.984734,17.465649,38.083969
0.604736,-0.326660,0.548584,-73.480919,16.633587,34.778625
0.631592,-0.329590,0.531006,-67.816795,16.442749,30.648855
0.646973,-0.330811,0.537109,-61.625954,15.427481,26.534351
0.645996,-0.345947,0.530518,-54.778625,12.244275,21.259542
0.629883,-0.350586,0.482910,-45.534351,5.374046,13.496183
0.622803,-0.313721,0.468262,-39.435116,-0.267176,6.244275
0.634277,-0.304199,0.440674,-37.091602,-5.656488,-0.061069
0.655762,-0.289062,0.422119,-38.977100,-6.763359,-3.717557
0.686768,-0.262207,0.391846,-47.977100,-0.786260,-6.076336
0.711670,0.055908,0.208984,-69.274811,5.603054,-9.351145
0.696533,-0.208740,0.340576,-78.541985,17.374046,-9.641221
0.606445,-0.243652,0.369385,-76.725189,14.938931,-7.343512
0.589600,-0.217773,0.289795,-87.099236,16.213741,-3.969466
0.573975,-0.223389,0.343262,-97.641220,16.732824,1.572519
0.523193,-0.262451,0.312988,-100.427483,11.175572,5.656488
0.539551,-0.291748,0.316162,-109.152672,12.900764,11.274809
0.534912,-0.299316,0.273193,-111.419846,11.427481,13.969465
0.593750,-0.254395,0.333008,-122.511452,11.732824,16.358778
0.587891,-0.349854,0.155762,-123.877861,11.717557,13.091603
0.676758,-0.366699,0.168945,-131.297714,19.664122,8.099236
0.706299,-0.387451,0.064453,-136.916031,33.732826,-2.572519
0.705322,-0.382812,0.125244,-147.221375,35.244274,-16.206106
0.727051,-0.325928,0.097900,-166.328247,49.435116,-18.519083
0.657227,-0.379150,0.180908,-166.366409,51.854961,-19.282442
0.564453,-0.431152,0.265625,-161.213745,46.824429,-18.763359
0.506836,-0.468506,0.311523,-153.900757,48.381680,3.244275
0.484863,-0.500977,0.375732,-162.488556,33.946564,-6.618320
0.392578,-0.538818,0.464111,-157.740463,16.770992,3.114504
0.399414,-0.610107,0.489502,-146.129776,4.145038,8.114504
0.441895,-0.604248,0.464355,-134.603058,-1.526718,14.374045
0.499268,-0.578369,0.395996,-121.809158,-6.198473,17.610687
0.554199,-0.584717,0.313965,-107.625954,-6.763359,16.389313
0.609375,-0.559814,0.253662,-93.969467,-6.931298,14.687023
0.641602,-0.539551,0.212646,-80.259544,-5.396946,9.725191
0.654541,-0.530518,0.185303,-69.114502,-3.053435,2.748092
0.685303,-0.501709,0.141846,-63.725189,1.633588,-4.251908
0.692139,-0.476074,0.132324,-59.419846,4.824428,-10.809160
0.661621,-0.467529,0.161377,-53.305344,5.572519,-15.778625
0.635986,-0.481689,0.190430,-49.381680,8.488549,-18.923664
0.611572,-0.457275,0.225098,-48.496181,11.343512,-17.587786
0.572021,-0.468750,0.230469,-46.832062,9.709924,-12.763359
0.531982,-0.472656,0.213135,-44.145039,5.412214,-8.816793
0.542725,-0.458008,0.177490,-41.938931,1.992366,-5.480916
0.551514,-0.467041,0.150879,-39.328243,0.740458,-1.824427
0.577148,-0.468262,0.121338,-37.969467,2.648855,0.709924
0.574219,-0.448730,0.072998,-37.870228,2.320611,2.671756
0.584473,-0.441650,0.021484,-38.305344,1.290076,2.129771
0.584229,-0.447266,0.020020,-38.977100,1.847328,-0.732824
0.574219,-0.460693,0.032715,-39.160305,3.015267,-2.167939
0.570312,-0.460449,0.047119,-39.839695,4.770992,-2.381679
0.546387,-0.474854,0.065674,-40.648853,4.343512,-1.328244
0.542725,-0.484619,0.057861,-41.641220,3.992366,-1.900763
0.527832,-0.469238,0.040039,-43.564884,3.236641,-0.488550
0.528564,-0.463379,0.004150,-46.419846,2.778626,0.106870
0.530762,-0.455078,-0.045410,-51.549618,2.442748,-0.442748
0.675781,-0.442871,-0.370850,-74.129768,6.786260,2.992366
0.546387,-0.379883,-0.187500,-85.000000,19.587786,3.534351
0.528564,-0.484863,-0.248779,-100.366409,19.709923,4.847328
0.533203,-0.485107,-0.114746,-99.839691,18.038168,6.641222
0.484863,-0.512695,0.064209,-101.396950,17.450382,12.053435
0.430420,-0.475098,-0.121826,-105.717560,10.549619,16.076336
0.470459,-0.508301,0.020996,-104.389313,2.305344,19.473282
0.454590,-0.538818,-0.110352,-103.572517,-3.206107,20.564886
0.550537,-0.521729,-0.089600,-104.954201,-3.198473,19.984734
0.586914,-0.515869,-0.128174,-108.908394,-0.709924,18.259542
0.607422,-0.494385,-0.203125,-111.862595,2.099237,13.389313
0.631104,-0.541504,-0.117920,-104.175575,5.885496,7.977099
0.597900,-0.551758,-0.076904,-98.740456,3.870229,2.984733
0.566406,-0.581543,-0.042969,-94.068703,1.557252,0.152672
0.546875,-0.589355,-0.033691,-88.465652,-0.274809,-1.671756
0.553467,-0.572510,-0.046387,-82.442749,-1.587786,-2.534351
0.564209,-0.549316,-0.085938,-79.916031,0.290076,-3.541985
0.581543,-0.432129,-0.230225,-93.603050,9.450381,-2.076336
0.612793,-0.516602,-0.165039,-83.984734,11.862596,-4.465649
0.571045,-0.550293,-0.125977,-65.297707,4.732824,-6.625954
0.552979,-0.550293,-0.157715,-62.496181,3.786260,-8.946565
0.590088,-0.551758,-0.162354,-66.152672,9.435115,-8.885496
0.596191,-0.572754,-0.095459,-104.625954,-4.259542,-6.572519
0.571533,-0.474854,-0.167725,-49.167938,9.251908,-7.053435
0.577881,-0.527100,-0.205811,-47.000000,14.183207,-6.709924
0.591064,-0.507812,-0.224854,-41.343510,15.770992,-6.282443
0.567871,-0.479248,-0.239014,-46.389313,14.251908,-6.030534
0.486328,-0.221436,-0.155518,-37.038166,14.732824,-8.541985
0.547363,-0.464355,-0.265869,-40.854961,11.717557,-4.748092
0.530273,-0.481201,-0.273438,-41.450382,8.267176,-4.244275
0.549072,-0.486572,-0.280029,-40.229008,5.076336,-4.267176
0.519775,-0.469727,-0.261475,-34.832062,1.335878,-1.541985
0.498779,-0.489014,-0.247559,-31.694656,-1.885496,1.610687
0.510986,-0.489014,-0.279541,-31.969465,-2.396947,3.458015
0.535645,-0.476074,-0.282471,-31.778625,-3.473282,4.770992
0.539551,-0.480225,-0.289551,-30.717558,-4.083970,5.038168
0.553467,-0.464844,-0.316162,-31.488550,-2.137405,4.175572
0.588135,-0.450439,-0.355713,-33.267174,0.786260,2.946565
0.590576,-0.449951,-0.384033,-36.458015,3.274809,1.793893
0.667969,-0.459229,-0.473877,-44.732826,4.931298,-0.320611
0.599365,-0.456543,-0.390381,-43.885498,4.564886,-0.916031
0.551758,-0.701172,-0.357910,-40.488548,5.343512,1.206107
0.518799,-0.536377,-0.286377,-39.091602,1.053435,3.725191
0.520752,-0.537354,-0.292969,-38.862595,-0.740458,6.068702
0.530273,-0.511719,-0.322754,-44.931297,-0.877863,9.022901
0.552002,-0.520020,-0.295166,-41.145039,-1.603053,9.877863
0.559814,-0.511475,-0.321289,-37.251907,-1.496183,9.549619
0.568359,-0.477051,-0.375244,-41.198475,0.755725,9.412213
0.576904,-0.459717,-0.368164,-41.290077,1.954198,8.076336
0.564941,-0.452881,-0.391602,-44.664124,0.709924,5.511450
0.543701,-0.427490,-0.389160,-47.587788,0.122137,2.221374
0.564453,-0.432861,-0.408447,-49.320610,1.641221,0.267176
0.557373,-0.431885,-0.417969,-54.687023,1.183206,-0.725191
0.540283,-0.431641,-0.414307,-58.450382,2.679389,-1.015267
0.534424,-0.457520,-0.384521,-53.145039,3.564885,-1.267176
0.517090,-0.466309,-0.373047,-56.824429,0.885496,0.778626
0.516602,-0.477539,-0.398438,-56.702290,2.419847,1.809160
0.519287,-0.456543,-0.403076,-56.717556,-0.061069,2.664122
0.505371,-0.431641,-0.424072,-53.847328,-1.862595,1.732824
0.524414,-0.408936,-0.444092,-57.030533,-1.236641,0.809160
0.532715,-0.385742,-0.486572,-63.580154,-0.541985,-0.114504
0.538330,-0.380371,-0.512207,-67.618324,0.175573,-1.717557
0.542725,-0.355713,-0.528809,-74.015266,-0.152672,-2.503817
0.545898,-0.363037,-0.497803,-70.755722,-1.251908,-0.961832
0.504395,-0.401123,-0.454102,-64.312981,-6.938931,0.412214
0.533203,-0.422607,-0.430908,-64.442749,-11.809160,1.137405
0.558350,-0.417725,-0.464844,-68.015266,-12.763359,2.236641
0.585449,-0.442383,-0.467773,-64.946564,-14.893129,2.946565
0.582764,-0.460693,-0.454102,-55.480915,-17.198473,2.000000
0.580078,-0.489990,-0.452637,-47.923664,-17.580153,0.312977
0.584473,-0.490479,-0.452637,-43.450382,-16.725191,-0.618321
0.590332,-0.499756,-0.476562,-41.251907,-15.717557,-2.541985
0.619629,-0.485840,-0.492432,-39.106869,-12.778625,-4.755725
0.633301,-0.458496,-0.526611,-39.534351,-8.809160,-7.061069
0.635254,-0.450439,-0.546143,-45.526718,-5.152672,-10.129771
0.632324,-0.443604,-0.510498,-50.305344,1.824427,-13.755725
0.594971,-0.462891,-0.529785,-50.259541,6.022901,-14.374045
0.570557,-0.478760,-0.487305,-127.450378,13.381680,-4.175572
0.559326,-0.463867,-0.522217,-50.641220,5.862596,-10.801527
0.529297,-0.558350,-0.477051,-36.702290,2.603053,-8.648855
0.519287,-0.515381,-0.489014,-30.587786,-0.282443,-6.816794
0.556641,-0.473389,-0.508789,-41.824429,1.625954,-3.618321
0.543457,-0.482178,-0.564697,-29.717558,1.404580,-6.412214
0.560059,-0.424805,-0.614746,-27.297710,0.946565,-9.709924
0.551514,-0.423096,-0.672852,-25.709923,0.198473,-13.213740
0.576416,-0.346436,-0.593750,-50.709923,7.862596,-12.480916
0.490723,-0.455566,-0.665527,-39.274811,8.160305,-15.793893
0.534424,-0.395264,-0.666504,-44.007633,8.870229,-16.236641
0.488281,-0.402100,-0.648193,-53.122139,5.198473,-14.656488
0.489258,-0.354248,-0.596924,-55.137405,5.511450,-12.534351
0.443359,-0.395752,-0.615967,-57.839695,2.839695,-7.091603
0.421387,-0.415039,-0.632812,-44.404579,-12.419847,-0.992366
0.466797,-0.338867,-0.532715,-59.419846,-9.091603,4.320611
0.416992,-0.380615,-0.610840,-53.419846,-14.129771,9.755725
0.471436,-0.344238,-0.618408,-59.320610,-15.091603,13.671756
0.488770,-0.375244,-0.662598,-57.381680,-14.564885,13.572519
0.537109,-0.320557,-0.647217,-58.290077,-13.198473,13.519084
0.578613,-0.346436,-0.685547,-60.748093,-8.908397,10.992367
0.599609,-0.358887,-0.670410,-63.435116,-3.961832,6.282443
0.578125,-0.343018,-0.683594,-61.465649,0.290076,2.160305
0.577148,-0.340332,-0.692627,-63.557251,3.580153,0.259542
0.575684,-0.317383,-0.687744,-79.900764,4.755725,-1.381679
0.536133,-0.375488,-0.689941,-79.267174,3.061069,-1.083969
0.483154,-0.367676,-0.723145,-78.366409,2.419847,-0.977099
0.467529,-0.354248,-0.729248,-84.969467,0.969466,2.137405
0.482910,-0.341553,-0.715332,-95.435112,4.419847,9.931297
0.434814,-0.346436,-0.778076,-88.809158,-11.190840,13.809160
0.562500,-0.253662,-0.642334,-97.267174,-15.167939,16.061069
0.526855,-0.301025,-0.731445,-97.977097,-16.908398,24.007633
0.520020,-0.325684,-0.708496,-85.541985,-27.671755,27.893129
0.614502,-0.331543,-0.653320,-85.664124,-21.740458,25.763359
0.662109,-0.369873,-0.672852,-73.519081,-13.992367,21.839695
0.671631,-0.381348,-0.667480,-59.045803,-10.770992,17.015266
0.667236,-0.420898,-0.662354,-44.419846,-6.091603,9.183207
0.646240,-0.476318,-0.607422,-27.946566,-5.618320,0.213740
0.617188,-0.443604,-0.678467,-19.877863,1.900763,-3.587786
0.607910,-0.418213,-0.729736,-14.145039,7.763359,-7.694656
0.579102,-0.357910,-0.788818,-12.374045,12.603053,-10.969465
0.524658,-0.305420,-0.804443,-12.847328,14.015267,-12.679389
0.458740,-0.268066,-0.803955,-16.213741,13.603053,-13.221375
0.436768,-0.265869,-0.817627,-21.458015,10.954199,-11.786260
0.400635,-0.264404,-0.805176,-17.106871,6.465649,-11.221375
0.382324,-0.247070,-0.803711,-19.625954,5.633588,-7.908397
0.404297,-0.244629,-0.873047,-22.267176,2.435115,-4.267176
0.437744,-0.250244,-0.879883,-22.534351,-2.381679,-2.358779
0.464111,-0.291504,-0.846680,-24.580153,-3.145038,-1.557252
0.492432,-0.327881,-0.847656,-19.335878,-2.847328,-0.992366
0.521240,-0.325684,-0.816162,-18.229008,-1.068702,-0.557252
0.543945,-0.308105,-0.806152,-16.000000,1.351145,-2.564885
0.552734,-0.278809,-0.820068,-14.954199,4.519084,-4.557252
0.551758,-0.244629,-0.816895,-17.206106,7.816794,-5.580153
0.517090,-0.271729,-0.780762,-15.923664,7.549618,-6.473282
0.512695,-0.239014,-0.794434,-18.625954,6.862596,-8.526717
0.508057,-0.211670,-0.798340,-21.954199,6.709924,-7.183206
0.468994,-0.203613,-0.793457,-21.206106,2.572519,-3.969466
0.451416,-0.220215,-0.805176,-21.328245,-2.839695,-2.274809
0.463379,-0.240967,-0.822266,-24.213741,-6.137404,-0.465649
0.495361,-0.222900,-0.857178,-30.641222,-6.076336,1.381679
0.508057,-0.217529,-0.874023,-35.053436,-7.969466,4.190840
0.520508,-0.229004,-0.843262,-35.511452,-5.160306,4.801527
0.523438,-0.261963,-0.863037,-36.702290,-1.938931,5.488550
0.511719,-0.260742,-0.840820,-36.175571,-2.534351,6.877862
0.517578,-0.275879,-0.825684,-33.748093,-4.641222,7.061069
0.511475,-0.275146,-0.827881,-31.854961,-6.793893,7.053435
0.506836,-0.268555,-0.832764,-30.610687,-7.343512,7.717557
0.494385,-0.276611,-0.813965,-27.404581,-9.404580,10.076336
0.489990,-0.315918,-0.793701,-22.694656,-12.435115,11.480916
0.495850,-0.329346,-0.802979,-21.267176,-14.328244,12.091603
0.492432,-0.307861,-0.815430,-20.656488,-15.572519,15.526717
0.469482,-0.274414,-0.820312,-21.488550,-16.900763,20.190840
0.468506,-0.262939,-0.833252,-24.213741,-17.916031,23.450382
0.473389,-0.202148,-0.866211,-32.564884,-16.312977,26.832062
0.467773,-0.180176,-0.843262,-36.641220,-16.259542,30.618320
0.488037,-0.184082,-0.835938,-36.641220,-15.267176,32.297710
0.492920,-0.209961,-0.803467,-35.427483,-13.832061,33.396946
0.521973,-0.221680,-0.768799,-29.801527,-14.251908,33.870228
0.538330,-0.249512,-0.750977,-19.832062,-15.099236,30.687023
0.576660,-0.252197,-0.765625,-11.595420,-12.366412,24.152672
0.625732,-0.238281,-0.779297,-5.541985,-5.496183,17.671755
0.662598,-0.227783,-0.790527,0.664122,1.221374,10.335877
0.676514,-0.195068,-0.852295,0.641221,9.343512,0.244275
0.653320,-0.229736,-0.840332,5.404580,16.725191,-9.335877
0.600830,-0.208008,-0.828369,7.068702,22.114504,-15.717557
0.570557,-0.197998,-0.815918,5.473282,25.778625,-20.198473
0.473389,-0.171387,-0.824707,4.106870,23.145039,-24.534351
0.413574,-0.193604,-0.864746,0.748092,23.290077,-26.396946
0.347656,-0.184570,-0.879639,-2.076336,14.984733,-24.381680
0.360596,-0.159180,-0.887939,-3.763359,9.167939,-21.374046
0.315918,-0.148438,-0.917480,-1.183206,-6.511450,-16.763359
0.405518,-0.103760,-0.847656,-14.488549,-7.145038,-12.641221
0.370605,-0.145752,-0.924561,-15.984733,-10.442748,-10.763359