acce_x,acce_y,acce_z,gyro_x,gyro_y,gyro_z
1.575241,1.575237,0.000000,2.022901,-1.664122,-1.511450
0.139160,-0.337891,0.804199,2.000000,-1.961832,-1.587786
0.142090,-0.335938,0.798584,2.122137,-1.793893,-1.526718
0.138184,-0.343750,0.797607,1.923664,-0.549618,-1.603053
0.136475,-0.340576,0.805176,1.732824,-0.427481,-1.648855
0.138428,-0.344727,0.806396,2.259542,-1.473282,-2.022901
0.129395,-0.341553,0.820312,2.335878,-3.633588,-2.778626
0.126221,-0.343262,0.816162,2.862595,-5.931298,-3.290076
0.135498,-0.338135,0.818848,3.465649,-6.854962,-3.694656
0.128906,-0.338135,0.814209,2.984733,-7.068702,-3.633588
0.125977,-0.327881,0.793213,1.740458,-5.519084,-2.969466
0.136475,-0.326172,0.783203,-0.190840,-2.862595,-2.083969
0.139160,-0.327637,0.786133,-1.778626,-0.503817,-0.931298
0.144287,-0.323242,0.776367,-2.893130,0.618321,-0.717557
0.144531,-0.332520,0.799805,-1.908397,-0.549618,-1.274809
0.137695,-0.336182,0.824219,-0.572519,-2.656489,-2.198473
0.135986,-0.327393,0.836426,0.038168,-5.832061,-2.908397
0.137451,-0.324951,0.822510,0.267176,-7.679389,-3.297710
0.138428,-0.321533,0.825195,-0.175573,-8.022901,-3.007634
0.141113,-0.315918,0.821289,-1.801527,-6.755725,-2.282443
0.145020,-0.312256,0.814941,-5.549618,-4.900764,-1.068702
0.152832,-0.307373,0.784668,-8.618320,-2.610687,-0.465649
0.161865,-0.307617,0.783203,-12.290076,-0.473282,-0.389313
0.164062,-0.303467,0.789551,-16.229008,0.595420,-0.648855
0.160645,-0.308105,0.777344,-20.183207,2.213740,-0.641221
0.153076,-0.308594,0.790283,-25.816793,1.389313,-0.694656
0.146484,-0.311768,0.788818,-30.633587,-1.816794,-0.412214
0.145996,-0.312012,0.790283,-36.305344,-2.900763,0.648855
0.135010,-0.320068,0.825928,-44.618320,-6.648855,2.969466
0.138672,-0.318848,0.807373,-53.748093,-12.068703,5.045802
0.171631,-0.363770,0.832764,-54.755726,-11.664123,4.816794
0.197021,-0.391113,0.880371,-50.977100,-7.083970,1.946565
0.201172,-0.414795,0.903320,-47.305344,-2.442748,-0.908397
0.174805,-0.416260,0.886230,-46.816795,-0.030534,-0.480916
0.151123,-0.411133,0.877930,-46.221375,-0.992366,0.778626
0.132324,-0.428223,0.883057,-43.946564,0.717557,2.511450
0.140137,-0.448975,0.903076,-36.618320,5.541985,2.977099
0.132812,-0.462646,0.929199,-29.770992,7.335878,2.442748
0.125244,-0.447266,0.896973,-27.916031,8.832061,2.786260
0.109863,-0.441650,0.859131,-29.374046,5.938931,2.740458
0.104248,-0.434814,0.824707,-31.000000,3.778626,3.221374
0.103760,-0.429688,0.809082,-33.381680,4.190840,5.541985
0.090088,-0.419922,0.778809,-37.854961,3.854962,7.305344
0.099609,-0.410400,0.722168,-45.068703,1.198473,8.725191
0.103271,-0.409424,0.694824,-50.335876,-3.091603,11.671756
0.127930,-0.421143,0.709229,-51.061069,-7.610687,11.251908
0.152100,-0.423340,0.719482,-54.282444,-10.480916,9.320611
0.137207,-0.424072,0.725098,-59.641220,-13.312977,9.954199
0.159668,-0.429199,0.704834,-60.648853,-11.839695,10.770992
0.151123,-0.437012,0.723633,-55.633587,-15.244275,10.083969
0.186279,-0.459961,0.766113,-49.885498,-11.526717,6.824428
0.190918,-0.473389,0.771729,-42.015266,-6.702290,3.564885
0.170654,-0.457764,0.786133,-37.938931,-6.000000,2.801527
0.154053,-0.454102,0.782471,-39.175571,-6.320611,2.190840
0.175781,-0.467285,0.747070,-42.236641,-4.053435,2.267176
0.138672,-0.482178,0.790283,-42.007633,-1.442748,1.076336
0.172607,-0.485352,0.726562,-43.145039,3.183206,1.564885
0.172852,-0.490479,0.706055,-41.083969,6.984733,1.702290
0.164551,-0.492432,0.715332,-39.335876,10.977099,1.381679
0.146484,-0.497070,0.694336,-39.954197,9.740458,0.580153
0.134521,-0.499512,0.692627,-42.694656,5.022901,-0.198473
0.105713,-0.513184,0.701660,-44.068703,1.282443,0.068702
0.108398,-0.528564,0.697266,-44.305344,-2.106870,0.503817
0.103271,-0.539307,0.716064,-45.885498,-6.000000,-0.061069
0.081299,-0.548340,0.704590,-49.045803,-5.213740,1.679389
0.112549,-0.539307,0.702393,-49.351147,-2.480916,5.610687
0.088379,-0.552979,0.709717,-51.175571,2.656489,9.732824
0.104980,-0.548340,0.684570,-55.091602,5.763359,12.885496
0.107422,-0.547363,0.661133,-59.068703,7.519084,13.610687
0.120361,-0.552979,0.666016,-61.221375,9.152672,13.274809
0.146729,-0.563232,0.652344,-59.900764,13.816793,12.908397
0.129150,-0.555664,0.643066,-64.053436,17.076336,12.083969
0.104736,-0.552979,0.616211,-68.755722,11.259542,12.702291
0.145996,-0.544922,0.594238,-68.664124,8.526717,12.679389
0.156494,-0.577881,0.628906,-65.839691,6.687023,9.770992
0.157227,-0.589600,0.655029,-64.625954,1.320611,5.427481
0.133301,-0.602295,0.647217,-64.755722,0.458015,3.244275
0.110352,-0.605957,0.649902,-61.824429,-4.015267,1.045802
0.126221,-0.606689,0.649658,-61.572517,-1.038168,1.450382
0.094482,-0.606445,0.635498,-66.694656,0.175573,3.809160
0.091553,-0.599121,0.582275,-73.328247,-1.534351,5.045802
0.112793,-0.583984,0.555420,-82.641220,2.496183,8.732824
0.140625,-0.600830,0.528564,-91.167938,2.358779,11.374045
0.111816,-0.624512,0.562256,-97.549622,12.267176,13.297709
0.108643,-0.647217,0.576416,-94.152672,7.129771,13.061069
0.203613,-0.654541,0.568115,-87.534348,6.404580,10.809160
0.227295,-0.698486,0.610596,-79.519081,6.175572,4.641222
0.142090,-0.735840,0.652344,-70.465652,4.961832,-0.274809
0.152344,-0.738037,0.665527,-60.091602,5.015267,-4.717557
0.130127,-0.754639,0.675537,-50.595421,-0.877863,-8.755725
0.125488,-0.735840,0.654053,-50.969467,2.969466,-10.541985
0.104492,-0.731445,0.638184,-52.175571,4.862596,-9.297709
0.090332,-0.743408,0.587891,-51.664124,7.206107,-6.160306
0.103271,-0.722900,0.591064,-55.068703,12.068703,0.083969
0.096680,-0.725342,0.581543,-61.312977,16.778625,7.091603
0.037842,-0.731201,0.538574,-68.519081,11.587787,10.748092
0.087402,-0.714111,0.516113,-77.687019,14.725191,14.763359
0.049561,-0.748291,0.527832,-86.274811,15.488549,18.274809
0.081055,-0.731934,0.525879,-84.725189,7.648855,19.755726
0.162109,-0.754150,0.545166,-72.778625,15.900764,18.282442
0.190674,-0.819336,0.625000,-54.442749,19.229008,13.022901
0.178711,-0.828369,0.639404,-41.885498,16.259542,6.748092
0.132324,-0.821533,0.613525,-36.801525,15.244275,2.236641
0.115967,-0.817139,0.596924,-30.335878,5.641222,-2.343511
0.126465,-0.823486,0.597900,-26.229008,4.320611,-4.335878
0.104248,-0.806396,0.560791,-26.015266,4.435114,-4.465649
0.098633,-0.780518,0.523926,-28.641222,2.076336,-3.992366
0.085693,-0.762695,0.474609,-34.900764,-0.190840,-1.832061
0.072510,-0.748779,0.429932,-42.648853,-3.274809,0.908397
0.074951,-0.730713,0.397949,-50.229008,-6.320611,3.145038
0.098145,-0.716064,0.356689,-60.916031,-3.778626,4.732824
0.101807,-0.735352,0.364502,-67.587784,-1.076336,7.893130
0.099854,-0.760742,0.420898,-67.587784,1.167939,9.229008
0.068604,-0.800293,0.463135,-64.442749,8.793893,10.022901
0.062500,-0.832275,0.512939,-57.099236,10.083969,9.946565
0.095459,-0.827148,0.541016,-50.038166,4.000000,4.877862
0.122070,-0.854980,0.533691,-46.603054,5.938931,0.809160
0.120605,-0.868652,0.541992,-38.145039,0.656489,-5.938931
0.180176,-0.842041,0.517822,-37.816795,10.908397,-9.641221
0.102051,-0.842773,0.488037,-37.053436,9.198473,-10.045801
0.103760,-0.811768,0.439697,-39.633587,5.442748,-10.000000
0.084961,-0.768799,0.416260,-46.183205,4.770992,-8.938931
0.073730,-0.766846,0.392822,-50.022900,1.717557,-5.442748
0.049072,-0.771484,0.375977,-57.274811,-0.267176,-0.412214
0.049072,-0.760254,0.336670,-64.824425,-6.412214,3.557252
0.048828,-0.752441,0.321777,-77.396950,-9.648855,6.694656
0.032959,-0.750244,0.301025,-91.877861,-13.534351,8.786260
0.063721,-0.789062,0.297119,-98.633591,-17.916031,11.832061
0.054688,-0.820312,0.337158,-97.465652,-16.816793,14.725191
0.076172,-0.832764,0.358398,-95.083969,-16.389313,15.328244
0.104004,-0.873047,0.384521,-88.328247,-8.732824,13.526717
0.094727,-0.901611,0.436523,-77.725189,-6.083970,11.748092
0.077637,-0.921387,0.432373,-72.404579,-5.000000,10.725191
0.055664,-0.932861,0.407471,-69.885498,-7.862596,9.175572
0.078613,-0.921631,0.379395,-72.022903,-7.725191,7.938931
0.071533,-0.915771,0.339844,-73.435112,-9.312977,7.213740
0.070801,-0.918213,0.304688,-76.557251,-10.183207,8.732824
0.080322,-0.917480,0.280273,-80.885498,-7.694656,10.526717
0.101318,-0.927002,0.270752,-84.580154,-0.687023,11.503817
0.106934,-0.947021,0.277588,-87.664124,4.625954,11.664123
0.106934,-0.953857,0.251465,-91.931297,6.603054,9.664123
0.130615,-0.968750,0.237549,-93.603050,7.801527,5.984733
0.142822,-0.989502,0.290527,-85.702293,10.152672,1.167939
0.120361,-1.021973,0.341797,-74.755722,10.274809,-1.908397
0.078369,-1.025879,0.333740,-71.335876,7.458015,-6.862596
0.053955,-1.016602,0.307373,-67.862595,3.236641,-8.381680
0.049805,-1.010254,0.293701,-63.778625,1.381679,-7.969466
0.045410,-1.013916,0.291992,-60.160305,1.129771,-6.404580
0.042236,-0.996094,0.248047,-59.549618,0.709924,-5.145038
0.050293,-0.977295,0.199463,-61.297710,-1.358779,-4.221374
0.065918,-0.958984,0.167969,-64.854965,-1.198473,-4.007634
0.077637,-0.954346,0.149658,-66.351143,-0.954198,-3.793893
0.072266,-0.948975,0.149414,-64.221375,-1.183206,-3.511450
0.066406,-0.948486,0.156738,-64.763359,-1.770992,-2.877863
0.062012,-0.951660,0.143799,-66.419846,-2.190840,-1.145038
0.057129,-0.953613,0.156982,-64.946564,-0.358779,1.748092
0.051025,-0.975586,0.172363,-61.396946,0.977099,5.076336
0.043457,-0.980469,0.177734,-58.114502,0.977099,6.916030
0.055664,-0.995850,0.182129,-55.229008,2.687023,7.709924
0.074707,-1.003662,0.193359,-49.572517,3.076336,6.755725
0.095459,-1.019287,0.204346,-43.282444,1.595420,3.541985
0.094727,-1.018311,0.191162,-38.328243,-0.847328,-0.900763
0.106201,-1.020996,0.172119,-35.916031,-2.610687,-6.267176
0.096680,-0.991943,0.155762,-33.832062,-5.885496,-8.847328
0.100586,-0.989746,0.142334,-30.526718,-6.671756,-10.053435
0.074707,-0.973633,0.105469,-28.603054,-7.480916,-10.076336
0.063721,-0.960449,0.064209,-30.931297,-8.061069,-8.106871
0.069580,-0.937988,0.036621,-36.732826,-7.106870,-4.137404
0.089844,-0.931885,-0.001709,-41.946564,-2.320611,0.038168
0.071045,-0.939697,0.008545,-46.916031,1.511450,4.450382
0.047363,-0.933105,0.004639,-53.068703,3.778626,9.183207
0.043701,-0.938477,0.014893,-59.129772,5.916030,14.374045
0.068604,-0.964600,0.041748,-62.175571,8.381680,16.572519
0.106689,-0.975098,0.041992,-61.862595,10.946565,15.923664
0.110840,-0.993896,0.050049,-61.511452,11.007633,13.114504
0.096436,-1.000977,0.044678,-61.244274,8.748092,8.809160
0.096436,-1.006592,0.028320,-61.404579,5.114504,4.236641
0.099854,-0.996338,0.009521,-61.641220,3.374046,0.381679
0.104004,-1.006592,0.009277,-60.068703,5.152672,-1.954198
0.092773,-1.021240,0.033936,-58.335876,9.938931,-1.854962
0.063721,-1.046875,0.042236,-57.206108,11.969465,-0.877863
0.017090,-1.033691,0.014160,-56.374046,9.114504,1.572519
0.006592,-1.020996,0.004639,-56.862595,6.694656,4.137404
0.024170,-1.017578,-0.040527,-58.213741,6.374046,7.251908
0.034912,-1.011719,-0.037842,-60.893131,8.763359,10.793893
0.033203,-1.005859,-0.058105,-63.938931,10.778625,15.908397
0.025391,-1.015137,-0.058105,-66.549622,10.954199,19.557251
0.025879,-1.018555,-0.051270,-66.671753,11.213740,21.908398
0.026611,-1.032471,-0.029541,-65.625954,9.419847,22.496183
0.031738,-1.042969,-0.050293,-66.427483,3.908397,20.977098
0.057861,-1.035889,-0.080566,-66.297707,2.114504,17.526718
0.094238,-1.042725,-0.065674,-63.587788,2.206107,12.908397
0.117188,-1.049316,-0.070312,-60.099236,4.045802,7.206107
0.092529,-1.056152,-0.065430,-59.526718,4.732824,2.648855
0.083740,-1.043457,-0.088135,-60.755726,4.274809,-2.015267
0.077148,-1.042725,-0.086426,-60.160305,4.717557,-4.389313
0.059570,-1.082520,-0.033691,-57.580154,4.427481,-6.015267
0.070312,-1.025146,-0.133545,-60.694656,8.656488,-5.312977
0.051025,-1.018555,-0.114502,-62.244274,10.282443,-3.366412
0.036865,-1.010254,-0.130615,-66.671753,11.129771,-0.465649
0.024902,-1.003906,-0.173828,-72.045799,9.183207,2.206107
0.032471,-0.992188,-0.173584,-77.083969,8.610687,5.213740
0.023438,-1.005127,-0.185547,-82.809158,8.671756,8.603053
0.034912,-1.002441,-0.185547,-87.167938,9.801527,12.557252
0.027100,-1.015625,-0.178955,-89.954201,10.923664,15.419847
0.032959,-1.037842,-0.178711,-90.251907,12.122137,18.038168
0.030273,-1.048828,-0.165527,-88.030533,11.496183,20.740458
0.047852,-1.059814,-0.174561,-89.938934,15.427481,21.519083
0.059082,-1.066650,-0.185303,-90.717560,18.236641,22.343512
0.047363,-1.060547,-0.195557,-89.206108,16.664122,22.038168
0.043701,-1.063965,-0.197510,-87.900764,14.786260,19.572519
0.048096,-1.062256,-0.214844,-88.083969,13.824428,15.839695
0.051758,-1.059326,-0.257324,-89.862595,13.732824,11.374045
0.070068,-1.044434,-0.287354,-91.282440,13.664123,7.412214
0.053711,-1.029785,-0.303711,-91.801529,12.381680,3.770992
0.033447,-1.042725,-0.309814,-92.648857,11.068703,1.274809
0.008301,-1.005859,-0.333740,-95.702293,15.534351,1.381679
0.002441,-1.059570,-0.311768,-86.381676,6.022901,0.832061
-0.009521,-1.042236,-0.308838,-82.969467,5.641222,-0.503817
-0.007812,-1.029541,-0.296143,-74.251907,4.671756,0.679389
-0.011719,-1.031006,-0.286865,-66.595421,5.389313,2.854962
-0.003906,-1.054199,-0.255615,-64.442749,14.519084,7.389313
-0.045166,-1.058594,-0.286865,-59.198475,10.038168,7.908397
-0.029297,-1.032959,-0.306396,-51.587788,4.007634,7.450382
-0.021484,-1.027344,-0.333008,-52.305344,6.648855,7.343512
0.025146,-0.996338,-0.397217,-51.358780,8.099236,6.267176
0.037842,-0.953369,-0.431152,-54.854961,10.213740,4.832061
0.048340,-0.955566,-0.465820,-55.061069,11.343512,1.366412
0.001465,-0.931396,-0.471436,-57.541985,11.786260,-0.534351
0.013916,-0.929199,-0.466309,-56.335876,12.229008,-3.717557
-0.022461,-0.953613,-0.461182,-53.480915,7.267176,-6.824428
-0.020020,-0.960938,-0.443604,-49.473282,1.320611,-9.824428
-0.013672,-0.971436,-0.432373,-45.984734,1.335878,-12.687023
-0.038086,-0.980957,-0.416992,-41.694656,1.610687,-10.824428
-0.039795,-0.995361,-0.400391,-37.389313,0.946565,-8.267176
-0.049072,-0.993164,-0.401367,-33.694656,2.557252,-6.633588
-0.039062,-0.983643,-0.457520,-33.412212,1.900763,-5.885496
-0.031738,-0.960205,-0.478271,-35.961834,2.236641,-2.442748
-0.009277,-0.954590,-0.471436,-36.580154,1.610687,-1.770992
0.004639,-0.951904,-0.498047,-39.763359,0.038168,-1.374046
0.021484,-0.917480,-0.539551,-45.862595,0.503817,-1.404580
0.023193,-0.895752,-0.556152,-51.381680,1.404580,-1.732824
0.018555,-0.900391,-0.562012,-52.969467,0.435115,-2.824427
0.005615,-0.918701,-0.524658,-52.404579,-0.641221,-2.984733
-0.001221,-0.956543,-0.492676,-51.206108,0.290076,-2.450382
-0.013916,-0.970215,-0.453369,-49.137405,3.183206,-0.480916
-0.038086,-0.978760,-0.422363,-47.022900,3.221374,0.480916
-0.006836,-0.986816,-0.442627,-47.435116,7.145038,0.610687
0.009033,-0.972168,-0.500732,-43.832062,6.305344,0.595420
0.057861,-0.953125,-0.500732,-42.519085,7.671756,0.801527
0.041260,-0.949463,-0.516846,-42.076336,11.366412,-0.328244
0.043701,-0.939453,-0.551270,-43.145039,9.183207,-2.458015
0.058594,-0.927246,-0.551758,-45.213741,8.045801,-3.687023
0.058350,-0.930664,-0.563477,-48.496181,9.717557,-5.854962
0.048584,-0.937256,-0.569824,-51.755726,9.045801,-7.664122
0.055420,-0.929443,-0.576172,-56.419846,11.465649,-7.969466
0.053711,-0.942627,-0.586182,-59.618320,14.160305,-7.992366
0.038086,-0.963867,-0.548828,-60.442749,16.656488,-8.549619
0.016357,-0.966553,-0.555420,-59.618320,17.580153,-7.816794
0.016846,-0.969727,-0.561768,-54.145039,22.160305,-8.335877
0.023193,-0.985596,-0.550049,-50.374046,30.190840,-9.480916
0.038086,-0.986572,-0.551514,-58.557251,37.900764,-4.732824
-0.039307,-0.904053,-0.723633,-72.595421,32.068703,-1.717557
-0.049072,-0.859863,-0.721680,-80.725189,18.160305,-0.297710
-0.019775,-0.854004,-0.714111,-78.633591,7.931298,-0.488550
-0.007568,-0.906494,-0.684082,-75.312981,1.709924,0.068702
0.007568,-0.948730,-0.639893,-71.129768,1.656489,1.664122
-0.018066,-0.965332,-0.616211,-64.305344,-4.679389,1.847328
-0.002930,-0.994141,-0.613525,-61.274811,-6.961832,2.358779
0.005615,-0.964111,-0.600830,-59.206108,-4.671756,4.396946
-0.002441,-0.937988,-0.634033,-58.526718,-8.259542,3.587786
0.021729,-0.938965,-0.646240,-58.870228,-10.778625,1.778626
0.059570,-0.901123,-0.630371,-59.664124,-7.251908,-0.267176
0.052246,-0.890625,-0.649902,-56.442749,-5.328244,-2.488550
0.061279,-0.875000,-0.673096,-54.801525,-3.419847,-5.465649
0.063477,-0.874023,-0.682861,-57.923664,1.458015,-7.977099
0.055908,-0.855957,-0.684570,-54.748093,2.503817,-7.480916
0.006348,-0.895264,-0.668701,-38.809162,-4.213740,-5.007634
-0.008301,-0.917725,-0.620850,-37.687023,1.129771,-4.870229
0.017578,-0.902344,-0.680420,-39.740459,2.335878,-4.007634