acce_x,acce_y,acce_z,gyro_x,gyro_y,gyro_z
0.109131,-0.350098,0.810059,0.587786,-3.145038,-0.717557
0.121338,-0.356201,0.828613,0.236641,-2.801527,-0.229008
0.124512,-0.353516,0.818848,0.122137,-3.335878,-0.732824
0.150879,-0.367188,0.816895,1.053435,0.061069,-1.732824
0.130859,-0.361084,0.830811,2.053435,1.114504,-2.404580
0.120605,-0.356689,0.819336,2.137405,1.977099,-1.687023
0.107910,-0.356445,0.818604,1.396947,2.389313,-1.000000
0.113281,-0.353760,0.820312,1.190840,1.603053,-0.190840
0.109619,-0.369141,0.824707,2.549618,-1.793893,-0.183206
0.117920,-0.362793,0.812988,2.740458,-3.984733,-0.076336
0.117432,-0.353271,0.806641,3.129771,-5.160306,0.244275
0.132324,-0.355713,0.802979,3.984733,-5.022901,0.198473
0.129639,-0.367676,0.826660,4.053435,-6.519084,-0.557252
0.138184,-0.334229,0.739258,3.519084,-2.961832,-0.259542
0.151611,-0.335205,0.790527,0.587786,1.007634,0.916031
0.145752,-0.341797,0.788574,-0.290076,2.480916,0.992366
0.165771,-0.344727,0.788574,-1.854962,5.618320,0.847328
0.151611,-0.345947,0.781006,-1.564885,5.641222,0.206107
0.136475,-0.343506,0.795410,-1.900763,4.358778,-0.687023
0.132324,-0.349609,0.793213,-1.557252,0.961832,-2.076336
0.121826,-0.351318,0.780273,-1.030534,-2.946565,-2.099237
0.126221,-0.348389,0.795654,-1.442748,-4.404580,-2.244275
0.139160,-0.344238,0.791992,-0.709924,-4.450382,-1.770992
0.145996,-0.346924,0.804443,-0.251908,-3.381679,-2.236641
0.152832,-0.346191,0.802002,0.625954,-1.480916,-2.404580
0.147705,-0.345215,0.798584,0.396947,1.007634,-2.175573
0.141846,-0.341309,0.784668,-0.503817,2.175573,-1.717557
0.142334,-0.338623,0.781006,-0.946565,2.671756,-1.473282
0.139404,-0.347168,0.799805,-1.366412,3.114504,-1.496183
0.143066,-0.355713,0.810791,-1.450382,2.030534,-2.244275
0.142090,-0.359131,0.824463,-0.916031,0.297710,-3.160305
0.135986,-0.356689,0.826416,-0.389313,-0.595420,-3.625954
0.126953,-0.361328,0.831299,-0.435115,-1.748092,-3.992366
0.130859,-0.350830,0.827881,-1.206107,-1.076336,-3.648855
0.122559,-0.342529,0.813477,-2.511450,-1.328244,-2.870229
0.115234,-0.335205,0.791504,-4.854962,-0.152672,-1.343511
0.118408,-0.324707,0.783447,-8.854961,1.442748,0.068702
0.114258,-0.328857,0.783691,-13.000000,1.427481,1.572519
0.125488,-0.334961,0.761230,-15.923664,5.572519,3.091603
0.124756,-0.332031,0.786377,-19.618320,6.221374,4.160306
0.130127,-0.342285,0.784912,-21.587786,5.229008,3.732824
0.138428,-0.349854,0.789062,-22.343512,4.083970,3.091603
0.143555,-0.365967,0.824219,-21.427481,3.145038,1.328244
0.147705,-0.367676,0.840576,-19.923664,2.366412,0.572519
0.126465,-0.370850,0.828613,-20.374046,1.015267,0.244275
0.130371,-0.363525,0.835938,-20.984734,0.519084,0.854962
0.135742,-0.381836,0.831055,-19.221375,1.534351,1.725191
0.121582,-0.383789,0.844482,-17.251909,1.076336,2.687023
0.112793,-0.390137,0.823975,-17.053434,1.732824,3.412214
0.109375,-0.381836,0.814941,-18.198473,2.068702,4.564886
0.100098,-0.377686,0.816162,-19.763359,1.824427,6.916030
0.116455,-0.381348,0.803955,-21.351145,2.496183,8.007633
0.126221,-0.387207,0.791016,-22.396946,2.587786,7.183206
0.140869,-0.385742,0.767334,-24.664122,4.076336,5.465649
0.141846,-0.379639,0.780273,-25.916031,5.022901,3.946565
0.136475,-0.391113,0.812500,-27.412214,4.145038,3.702290
0.135010,-0.387207,0.790039,-28.061069,5.442748,3.908397
0.138428,-0.395264,0.800293,-27.374046,5.129771,2.358779
0.137207,-0.399658,0.795410,-27.374046,3.961832,0.923664
0.113770,-0.403320,0.798828,-29.106871,2.679389,1.671756
0.097900,-0.396240,0.787598,-31.274809,2.122137,3.442748
0.094482,-0.401123,0.756836,-33.366413,0.473282,4.435114
0.095947,-0.389893,0.746338,-36.664124,-1.061069,6.786260
0.097656,-0.402100,0.736816,-40.053436,-1.458015,8.099236
0.109131,-0.400391,0.725342,-44.206108,-0.603053,9.687023
0.106689,-0.403320,0.716064,-51.633587,-2.328244,11.732824
0.099609,-0.392090,0.708252,-62.267174,-3.732824,13.786260
0.118164,-0.405762,0.695801,-71.030533,-5.687023,14.167939
0.112061,-0.425049,0.679199,-80.458015,-6.832061,13.198473
0.109619,-0.425781,0.673340,-93.740456,-7.931298,12.824428
0.139648,-0.444580,0.662354,-102.305344,1.137405,11.633588
0.140625,-0.469971,0.697266,-104.511452,8.167939,10.511451
0.129639,-0.495605,0.730225,-106.503815,14.045801,10.534351
0.107178,-0.503418,0.735596,-105.709923,15.473283,11.816793
0.090576,-0.512695,0.736084,-99.893127,13.862596,14.106871
0.098389,-0.531006,0.754150,-95.167938,10.274809,14.679389
0.093750,-0.550049,0.747314,-93.763359,7.435114,15.251908
0.082520,-0.550537,0.741455,-90.633591,4.770992,16.282442
0.118896,-0.580566,0.749512,-83.244278,6.213740,14.694656
0.128174,-0.590332,0.756836,-79.038170,5.442748,11.534351
0.115234,-0.580078,0.735840,-78.351143,3.687023,10.931297
0.086182,-0.570312,0.671143,-81.183205,0.335878,10.335877
0.078857,-0.547119,0.603271,-88.366409,-4.129771,9.709924
0.062744,-0.526367,0.527832,-101.679390,-8.297709,11.221375
0.081055,-0.536865,0.503662,-116.664124,-9.900764,15.076336
0.114502,-0.566650,0.520752,-119.992363,-6.839694,17.038168
0.143311,-0.613525,0.575439,-120.114502,-0.190840,15.984733
0.134766,-0.641846,0.621094,-123.114502,7.320611,15.480916
0.123779,-0.676758,0.654053,-120.793892,14.160305,15.809160
0.119385,-0.696777,0.666260,-113.809158,17.175573,14.969465
0.096680,-0.722656,0.685303,-108.847328,15.206107,12.198473
0.101562,-0.747314,0.686523,-101.282440,14.290076,7.045802
0.099365,-0.773926,0.719727,-86.366409,12.045801,3.000000
0.074707,-0.784912,0.738770,-72.297707,8.946565,0.015267
0.050537,-0.776611,0.692627,-66.068703,3.015267,-1.366412
0.044189,-0.754639,0.622070,-66.007637,-3.534351,-1.992366
0.055420,-0.749023,0.568115,-61.854961,-9.343512,-1.786260
0.083496,-0.745117,0.567139,-58.114502,-10.816793,-1.648855
0.066895,-0.746338,0.564941,-59.312977,-10.160305,-1.236641
0.056885,-0.740234,0.553223,-62.931297,-9.015267,1.145038
0.044189,-0.737305,0.534668,-64.198471,-7.679389,5.351145
0.058350,-0.742432,0.537109,-66.099236,-3.580153,8.206107
0.068115,-0.750000,0.519043,-67.908394,2.702290,12.320611
0.100098,-0.770508,0.529053,-65.893127,11.137404,13.000000
0.112793,-0.792480,0.568848,-61.854961,15.862596,11.702291
0.084717,-0.806396,0.578857,-59.190838,13.809160,8.633588
0.070801,-0.804443,0.560059,-57.748093,9.549619,5.404580
0.072754,-0.797363,0.543945,-56.870228,4.687023,2.419847
0.063477,-0.794189,0.529053,-58.160305,-0.519084,1.335878
0.073975,-0.801514,0.496094,-63.229008,-3.465649,0.167939
0.080322,-0.782227,0.460449,-66.488548,-5.290076,2.007634
0.086182,-0.785156,0.448975,-69.030533,-7.038168,3.351145
0.081055,-0.790771,0.444824,-73.778625,-7.709924,4.038168
0.071533,-0.804443,0.426270,-78.290077,-7.068702,6.160306
0.106689,-0.815918,0.449707,-75.282440,1.603053,6.641222
0.115723,-0.854736,0.505127,-70.351143,10.160305,6.541985
0.077148,-0.852783,0.492188,-70.160309,13.343512,7.748092
0.059814,-0.841797,0.458252,-73.572517,15.954199,10.633588
0.038574,-0.848633,0.446289,-77.931297,12.366412,11.725191
0.037354,-0.874268,0.493652,-80.259544,9.770992,13.045801
0.037109,-0.889404,0.492188,-81.854965,6.297710,12.763359
0.066895,-0.901367,0.472656,-83.717560,6.862596,10.770992
0.057129,-0.904297,0.447266,-87.625954,3.748092,10.297709
0.027588,-0.884521,0.376953,-94.267174,-2.572519,9.236641
0.000732,-0.853271,0.331299,-103.083969,-10.229008,9.740458
-0.002197,-0.835938,0.284668,-111.038170,-16.610687,10.206107
0.038818,-0.843506,0.274902,-115.473282,-15.259542,10.755725
0.066406,-0.863281,0.306396,-112.694656,-11.656488,13.198473
0.077881,-0.885742,0.351807,-98.824425,-5.335878,15.793893
0.097900,-0.910889,0.399414,-81.557251,2.839695,16.412214
0.087402,-0.930420,0.392578,-75.267174,4.824428,15.954199
0.089600,-0.930664,0.351562,-76.893127,5.404580,14.923664
0.101074,-0.937988,0.346436,-79.297707,6.557252,13.801527
0.114990,-0.947021,0.324463,-80.297707,6.923664,10.236641
0.085205,-0.940918,0.301025,-83.755722,-0.610687,4.923664
0.072266,-0.917236,0.244141,-90.595421,-6.473282,1.412214
0.068848,-0.896729,0.162598,-100.229004,-10.671756,-1.671756
0.053467,-0.873535,0.112549,-112.007637,-15.229008,-3.114504
0.022949,-0.867432,0.087158,-123.435112,-18.564886,-3.198473
0.076660,-0.892090,0.090820,-118.404579,-8.977099,-1.061069
0.075195,-0.933105,0.210205,-98.740456,-0.068702,2.145038
0.026611,-0.988281,0.291260,-82.816795,6.694656,5.244275
0.014648,-1.011230,0.285889,-72.007637,10.404580,8.969465
0.025146,-1.027588,0.290527,-61.519085,12.480916,9.885496
0.040283,-1.061523,0.297119,-52.786259,12.183207,6.969466
0.056396,-1.062012,0.278076,-44.778625,8.885496,-0.099237
0.053223,-1.049561,0.248047,-37.603054,1.282443,-8.259542
0.022461,-1.014404,0.189209,-31.816793,-10.083969,-15.015267
0.029297,-0.996094,0.161865,-31.206106,-17.106871,-19.030535
0.049805,-0.964600,0.126953,-32.580154,-16.786259,-20.000000
0.037842,-0.940186,0.091797,-35.190838,-14.206107,-17.603054
0.013184,-0.927002,0.087891,-38.534351,-12.511451,-12.549619
0.025879,-0.939453,0.087402,-38.916031,-6.778626,-5.977099
0.051270,-0.965088,0.145752,-32.633587,2.374046,-0.496183
0.055908,-1.001221,0.213379,-21.687023,10.068703,4.946565
0.043457,-1.029297,0.241943,-12.625955,15.038168,9.022901
0.027588,-1.017822,0.227783,-7.908397,14.366412,8.068703
0.050781,-1.030762,0.236328,0.633588,14.083969,4.786260
0.066895,-1.048828,0.250977,13.282443,10.015267,-0.770992
0.066895,-1.045898,0.243164,22.297710,3.770992,-6.000000
0.052002,-1.026367,0.199707,24.015266,-3.824427,-11.206107
0.037109,-1.011719,0.149658,21.717558,-10.816793,-14.717557
0.042725,-0.986816,0.123291,18.175573,-16.335878,-15.687023
0.047363,-0.970703,0.109863,14.839695,-16.366413,-15.389313
0.041992,-0.968262,0.100098,10.694656,-16.419847,-12.198473
0.059814,-0.945557,0.068115,3.083969,-12.083969,-9.374045
0.054443,-0.935547,0.073242,-2.358779,-7.290076,-5.022901
0.041992,-0.938721,0.073486,-7.152672,-2.175573,-0.725191
0.047852,-0.942139,0.072021,-10.221375,1.786260,1.549618
0.051025,-0.946045,0.078613,-13.526717,4.770992,2.893130
0.052002,-0.952637,0.099365,-15.603053,6.083970,3.122137
0.064209,-0.963379,0.094971,-17.648855,6.221374,1.297710
0.070801,-0.968262,0.100586,-19.824427,5.946565,-1.259542
0.064453,-0.968262,0.100342,-21.877863,3.274809,-3.427481
0.079102,-0.971436,0.101807,-24.885496,2.801527,-5.732824
0.073975,-0.979492,0.109619,-27.916031,0.824427,-7.099236
0.059570,-0.979492,0.109131,-30.900763,-1.351145,-7.015267
0.067871,-0.976318,0.097900,-33.770992,-1.381679,-5.755725
0.052002,-0.974121,0.095703,-38.366413,-1.938931,-3.267176
0.045166,-0.977051,0.083008,-42.625954,-1.175573,-0.595420
0.048584,-0.981689,0.066162,-48.137405,1.893130,2.687023
0.055176,-0.972900,0.059326,-54.419846,5.549618,6.045802
0.057129,-0.994629,0.062988,-60.816795,10.114504,8.671756
0.042236,-0.995361,0.063232,-66.358780,11.335877,9.839695
0.036865,-0.988770,0.044434,-71.938934,12.977099,11.251908
0.025635,-0.995361,0.043213,-77.755722,11.435115,11.778625
0.035156,-0.996094,0.005859,-83.137405,12.732824,13.290076
0.074463,-1.006348,0.027832,-89.053436,14.854961,13.015267
0.035400,-0.995850,0.035156,-86.106873,10.396947,14.526717
0.031250,-1.022949,0.074951,-82.541985,12.206107,15.961832
0.020996,-1.050537,0.097168,-79.793892,10.190840,16.366413
0.046875,-1.061035,0.097168,-76.778625,12.557252,17.671755
0.070557,-1.068604,0.074951,-68.916031,14.145039,16.916031
0.058594,-1.077637,0.073242,-61.603054,14.442748,14.854961
0.054932,-1.054932,0.051270,-58.419846,10.030535,11.282443
0.070068,-1.029053,-0.017822,-58.709923,7.213740,6.572519
0.065430,-1.001953,-0.067627,-60.137405,2.656489,1.534351
0.051270,-0.971436,-0.111572,-62.679390,1.320611,-1.862595
0.046143,-0.965576,-0.121826,-67.038170,4.320611,-3.312977
0.011719,-0.949463,-0.150879,-71.404579,6.816794,-2.045802
-0.012207,-0.959717,-0.117432,-67.549622,7.183206,1.770992
-0.027588,-0.986572,-0.079834,-62.847328,12.129771,5.946565
-0.042725,-1.018311,-0.059326,-60.519085,14.717557,10.335877
-0.049316,-1.015137,-0.071289,-59.061069,14.564885,16.435114
-0.031250,-1.033691,-0.068115,-56.664124,18.190840,21.809160
-0.029785,-1.049561,-0.049316,-53.335876,20.343512,26.106871
-0.015381,-1.056641,-0.076172,-52.526718,19.809160,28.335878
0.008789,-1.049072,-0.122070,-53.641220,20.496183,28.076336
0.042480,-1.036621,-0.142578,-53.832062,20.053434,24.427481
0.056885,-1.020996,-0.158447,-55.740459,16.931297,18.290077
0.052002,-1.011230,-0.184082,-59.580154,11.549619,11.305344
0.059326,-1.001953,-0.193115,-61.244274,9.267176,4.076336
0.035156,-1.002441,-0.188965,-62.557251,6.458015,-1.167939
0.007080,-1.006592,-0.193359,-64.862595,4.213740,-4.778626
-0.009277,-1.002197,-0.205566,-69.435112,3.473282,-5.343512
-0.028320,-1.013916,-0.188965,-71.809158,3.740458,-3.251908
-0.054932,-1.032959,-0.161133,-71.519081,4.694656,1.022901
-0.073975,-1.044189,-0.157959,-71.541985,6.946565,7.503817
-0.072266,-1.056152,-0.144287,-70.358780,10.038168,13.984733
-0.086426,-1.057861,-0.153076,-68.137405,10.679389,19.946566
-0.074463,-1.045166,-0.212158,-68.106873,10.312977,22.488550
-0.052246,-1.024658,-0.265625,-70.725189,10.328244,23.625954
-0.009033,-1.011719,-0.304443,-73.587784,11.114504,22.816793
0.020752,-1.014160,-0.322998,-74.770996,10.343512,17.885496
0.027344,-1.045166,-0.305664,-75.175575,7.664122,9.832061
0.016602,-1.054199,-0.270996,-73.656487,3.694656,1.282443
-0.003906,-1.068848,-0.246094,-71.206108,1.778626,-4.938931
-0.022217,-1.084473,-0.210938,-67.198471,0.511450,-7.824428
-0.051270,-1.087646,-0.199219,-63.381680,-0.053435,-9.145039
-0.040771,-1.075684,-0.225830,-59.664124,1.847328,-7.160306
-0.038330,-1.067871,-0.224854,-53.274811,5.000000,-3.694656
-0.045654,-1.059082,-0.231445,-46.702290,7.000000,0.709924
-0.067139,-1.068848,-0.227295,-39.061069,5.885496,4.916030
-0.065918,-1.054443,-0.227051,-33.251907,4.450382,6.312977
-0.069336,-1.063232,-0.206787,-25.267176,2.595420,8.106871
-0.049072,-1.083984,-0.184082,-19.160305,1.610687,6.053435
-0.038818,-1.089355,-0.173828,-11.549619,0.763359,6.167939
-0.023682,-1.085938,-0.201416,-2.633588,-0.305344,6.007634
0.007080,-1.088379,-0.206787,5.419847,-0.770992,3.503817
0.014648,-1.081055,-0.218994,13.106871,-1.977099,0.083969
0.014404,-1.069580,-0.237305,19.671755,-4.015267,-4.778626
0.009277,-1.051270,-0.266846,23.427481,-7.656488,-10.732824
0.022705,-1.015381,-0.341309,21.725191,-9.038168,-16.427481
0.026367,-0.975830,-0.393799,16.900763,-9.587787,-19.618320
0.005371,-0.935303,-0.417480,9.221375,-8.587787,-19.587786
-0.004639,-0.903076,-0.443848,-1.503817,-4.778626,-17.427481
-0.019043,-0.875732,-0.491943,-13.969465,-3.038168,-12.946565
-0.027344,-0.865234,-0.486328,-25.740458,-0.114504,-7.282443
-0.044189,-0.890137,-0.461182,-33.496181,3.511450,-1.946565
-0.029541,-0.923096,-0.405518,-37.259541,8.274809,2.358779
-0.011475,-0.957764,-0.369141,-37.297710,10.473283,3.618321
-0.018555,-1.000244,-0.322998,-34.244274,9.358779,2.610687
-0.033447,-1.033936,-0.277832,-27.145039,7.351145,1.000000
-0.018799,-1.069336,-0.230225,-18.969465,5.351145,-1.419847
-0.002197,-1.080566,-0.235840,-12.641221,4.083970,-4.770992
0.018555,-1.061279,-0.263916,-8.374045,4.022901,-7.793893
0.020752,-1.047852,-0.310059,-7.160306,3.832061,-10.389313
0.010498,-1.027832,-0.337646,-8.374045,2.839695,-11.343512
0.026367,-1.009521,-0.358643,-13.748092,5.664122,-13.137404
0.030029,-0.978027,-0.444824,-23.633587,11.450381,-12.404580
0.002441,-0.937988,-0.448242,-31.366413,13.870229,-10.007633
-0.032715,-0.915527,-0.454834,-39.335876,13.404580,-6.465649
-0.041748,-0.944824,-0.415527,-43.167938,2.854962,-3.580153
-0.028809,-0.908936,-0.441895,-45.748093,15.160305,1.305344
-0.050537,-0.928467,-0.441162,-49.801525,13.625955,3.549618
-0.038086,-0.950195,-0.411865,-54.633587,15.931297,4.900764
-0.026611,-0.988770,-0.385498,-51.725189,15.977099,4.038168
-0.136230,-1.022217,-0.250000,-47.473282,-7.900764,2.923664
0.024414,-1.076172,-0.384277,-39.351147,5.083970,-2.335878
0.033936,-1.024658,-0.369385,-38.244274,1.267176,-2.694656
0.000244,-1.028320,-0.356689,-38.648853,1.290076,-5.572519
0.034424,-1.021484,-0.403076,-37.900764,0.473282,-9.129771
0.038574,-0.982910,-0.420166,-41.511452,0.763359,-11.076336
0.045898,-0.989746,-0.481689,-41.587788,2.732824,-13.702291
0.041748,-0.923828,-0.477783,-49.053436,2.839695,-14.664123
0.002441,-0.957031,-0.447998,-51.183205,2.297710,-13.938931
-0.028809,-0.965088,-0.466309,-53.725189,2.160305,-11.885496
-0.048340,-0.968750,-0.446533,-52.305344,5.572519,-7.618320
-0.030518,-0.984131,-0.419678,-49.671757,8.954199,-1.213740