acce_x,acce_y,acce_z,gyro_x,gyro_y,gyro_z
0.659424,0.266357,0.834961,-2.916031,0.244275,-1.122137
0.669434,0.257568,0.829102,-3.076336,1.045802,-0.847328
0.661621,0.256348,0.835938,-3.038168,1.496183,-0.717557
0.670410,0.255371,0.836182,-3.312977,2.137405,-0.358779
0.656738,0.264160,0.843262,-3.725191,1.404580,-0.450382
0.665039,0.263184,0.823730,-4.389313,0.290076,-0.717557
0.671143,0.267822,0.835693,-5.290076,-0.015267,-1.503817
0.673340,0.266602,0.840820,-6.099236,-1.274809,-1.656489
0.661865,0.267090,0.835693,-5.992366,-2.152672,-1.458015
0.662109,0.269287,0.831299,-6.610687,-3.801527,-1.557252
0.656006,0.265625,0.833496,-6.824428,-5.679389,-2.129771
0.663818,0.271240,0.826416,-7.137404,-8.206107,-2.564885
0.664307,0.270508,0.820312,-7.854962,-10.564885,-3.526718
0.677002,0.270264,0.822754,-9.374045,-11.770992,-4.389313
0.693848,0.268799,0.834717,-9.702291,-12.519084,-6.198473
0.715820,0.259277,0.817627,-9.793893,-13.244275,-8.725191
0.722900,0.259521,0.841064,-10.763359,-13.557252,-11.396947
0.714600,0.260498,0.838379,-11.801527,-14.351145,-12.893129
0.704346,0.263184,0.821045,-13.519084,-14.610687,-13.503817
0.700195,0.270264,0.815674,-15.404580,-12.679389,-13.396947
0.706299,0.275146,0.802734,-17.862595,-10.419847,-12.801527
0.694336,0.270996,0.772217,-20.687023,-11.366412,-12.137404
0.693359,0.275879,0.766846,-25.351145,-9.496183,-11.183207
0.694824,0.275879,0.762695,-30.015266,-8.251908,-10.282443
0.691650,0.271973,0.765869,-34.633587,-7.351145,-9.190840
0.695557,0.261230,0.748291,-39.992367,-7.030534,-8.488549
0.690430,0.253174,0.734863,-46.190838,-4.129771,-5.305344
0.693848,0.181396,0.760010,-47.244274,-4.083970,-2.610687
0.684082,0.212402,0.772217,-43.320610,-6.351145,-3.473282
0.697754,0.206055,0.809082,-42.320610,-7.442748,-5.267176
0.689941,0.187988,0.835693,-39.274811,-11.564885,-6.702290
0.671631,0.175537,0.846680,-35.129772,-16.251909,-6.717557
0.681152,0.176758,0.854492,-33.580154,-16.183207,-5.549618
0.696533,0.173584,0.852051,-31.587786,-15.053435,-4.068702
0.693115,0.167236,0.843506,-29.412214,-13.954199,-2.473282
0.697266,0.160889,0.837891,-27.557251,-13.358779,-2.083969
0.699951,0.167969,0.821289,-26.396946,-11.938931,-1.427481
0.698975,0.170166,0.798584,-26.152672,-9.038168,-0.175573
0.692871,0.178955,0.786621,-26.251909,-4.519084,1.343511
0.703613,0.088135,0.952148,-27.366413,-10.305344,0.717557
0.857422,0.176758,0.679932,-25.206106,12.740458,3.083969
0.697754,0.212891,0.706055,-32.648853,15.709924,7.198473
0.682861,0.199219,0.738281,-31.282442,15.427481,9.015267
0.705811,0.205322,0.720459,-35.076336,21.259542,10.129771
0.697021,0.197998,0.727783,-39.083969,22.526718,11.183207
0.701904,0.185059,0.736328,-38.984734,21.419847,11.137404
0.663086,0.188232,0.798828,-44.671757,14.328244,10.244275
0.722412,0.150391,0.784424,-40.801525,11.450381,5.763359
0.726318,0.137207,0.803467,-43.893131,7.511450,2.206107
0.703125,0.125732,0.792969,-40.297710,2.305344,-0.213740
0.683838,0.167236,0.773926,-42.167938,0.343511,-0.977099
0.691406,0.134033,0.774658,-47.335876,2.000000,0.908397
0.698242,0.141113,0.740234,-53.511452,6.175572,3.076336
0.696045,0.142822,0.725098,-61.015266,11.809160,7.374046
0.687988,0.150879,0.682617,-75.282440,16.671755,11.755725
0.686035,0.142090,0.660645,-85.297707,27.923664,16.305344
0.671387,0.138428,0.629395,-97.312981,37.038166,24.885496
0.650391,0.133057,0.618652,-106.916031,39.656490,33.114502
0.635010,0.110352,0.641602,-119.938934,43.938931,36.625954
0.642334,0.097900,0.643311,-132.557251,46.595421,38.709923
0.639404,0.054688,0.665527,-137.045807,42.496181,39.328243
0.684082,-0.076172,0.700195,-132.870224,30.740458,30.229008
0.677246,-0.018799,0.719727,-135.625961,22.778625,22.198473
0.650391,-0.060303,0.777588,-124.587784,10.725191,14.183207
0.675293,-0.074219,0.815674,-111.213737,6.801527,7.076336
0.652832,-0.100098,0.834229,-98.015266,-0.572519,2.038168
0.642334,-0.087402,0.795166,-93.183205,-6.832061,-0.091603
0.656250,-0.075439,0.753662,-96.572517,-4.190840,1.282443
0.653809,-0.084473,0.732910,-99.458015,1.022901,5.725191
0.626709,-0.092773,0.692383,-103.343513,3.610687,11.396947
0.593262,-0.080078,0.625977,-109.603050,6.648855,17.564886
0.595703,-0.073486,0.567871,-120.839691,11.770992,24.877863
0.565186,-0.067383,0.534668,-134.419846,14.885496,32.877861
0.574463,-0.080811,0.499512,-148.038162,18.374046,39.511452
0.599365,-0.110596,0.488037,-155.297714,21.595419,45.145039
0.599609,-0.156250,0.519043,-150.916031,26.610687,47.763359
0.576904,-0.204102,0.585205,-140.824432,27.732824,48.725189
0.543701,-0.261230,0.644775,-128.664124,20.748091,47.442749
0.531494,-0.280518,0.666992,-120.267174,14.908397,44.671757
0.552734,-0.284668,0.678467,-113.702293,9.877863,42.351147
0.554199,-0.303223,0.693848,-107.969467,4.343512,38.908398
0.586182,-0.296631,0.658691,-105.274811,0.145038,32.748093
0.624268,-0.293213,0.631348,-103.511452,-2.549618,26.480917
0.648193,-0.284668,0.599609,-102.381676,-3.679389,20.465649
0.653809,-0.277100,0.589600,-102.572517,-5.030534,14.801527
0.642578,-0.276855,0.548340,-103.793892,-7.167939,9.687023
0.654541,-0.257324,0.503906,-106.213737,-6.343512,4.969466
0.662598,-0.263428,0.476562,-108.083969,-2.656489,1.885496
0.654297,-0.276855,0.468018,-107.503815,0.129771,1.045802
0.657227,-0.286865,0.454346,-104.312981,3.908397,0.312977
0.617920,-0.280762,0.479004,-99.251907,2.809160,-0.358779
0.585205,-0.304199,0.463867,-99.458015,1.122137,-0.549618
0.570312,-0.295410,0.435059,-100.198471,-2.099237,0.190840
0.590576,-0.305420,0.410156,-102.694656,-0.427481,-0.083969
0.599121,-0.315186,0.422852,-98.572517,0.549618,-0.152672
0.584229,-0.350342,0.444092,-94.664124,0.213740,-1.198473
0.566895,-0.334229,0.393555,-96.404579,-0.267176,-1.992366
0.566162,-0.342773,0.369873,-100.190842,-1.625954,-2.748092
0.577637,-0.356689,0.356934,-102.801529,-0.160305,-2.931298
0.604736,-0.361328,0.329590,-107.984734,4.190840,-4.396946
0.611572,-0.365234,0.319580,-112.916031,6.824428,-6.595420
0.606689,-0.345215,0.271973,-119.282440,7.839694,-6.938931
0.603271,-0.359375,0.266113,-122.206108,8.190840,-8.076336
0.595703,-0.376953,0.295898,-120.312981,9.000000,-8.473283
0.593018,-0.395264,0.293945,-118.351143,9.931297,-9.068703
0.579346,-0.432373,0.319824,-112.488548,9.389313,-8.687023
0.554688,-0.447998,0.342041,-103.931297,7.870229,-7.358778
0.567871,-0.470459,0.339600,-97.862595,6.984733,-6.709924
0.552002,-0.482178,0.324463,-92.923668,6.259542,-7.083970
0.540527,-0.482910,0.350586,-86.610687,2.053435,-6.748092
0.543457,-0.483643,0.320801,-81.137405,-1.435115,-6.503817
0.554443,-0.475586,0.279053,-77.786263,-4.687023,-6.641222
0.554199,-0.461914,0.249512,-76.206108,-7.099236,-6.648855
0.589600,-0.445312,0.223877,-76.038170,-4.610687,-6.816794
0.595703,-0.449463,0.193115,-76.000000,-1.633588,-6.778626
0.578125,-0.436035,0.162109,-77.396950,0.473282,-6.450382
0.572754,-0.433105,0.139160,-81.175575,1.320611,-6.251908
0.565674,-0.431885,0.132324,-83.564888,2.213740,-4.702290
0.563232,-0.428711,0.137451,-83.603050,2.778626,-2.587786
0.561279,-0.436768,0.131104,-84.763359,1.870229,-1.007634
0.535156,-0.439453,0.115967,-85.847328,-1.488550,1.465649
0.546875,-0.434082,0.087402,-86.099236,-3.099237,4.557252
0.541748,-0.442871,0.116699,-83.801529,-6.297710,6.419847
0.565918,-0.459717,0.110596,-82.038170,-7.412214,8.343512
0.567871,-0.469238,0.096924,-81.618324,-6.832061,8.679389
0.592773,-0.472412,0.111572,-79.526718,-4.473282,7.412214
0.592529,-0.483643,0.092285,-77.106873,-3.282443,6.534351
0.594727,-0.484131,0.082520,-78.427483,-2.763359,3.396947
0.594238,-0.491699,0.074951,-79.465652,-3.312977,0.702290
0.596191,-0.496094,0.058350,-79.282440,-3.786260,-2.381679
0.591797,-0.499756,0.045654,-78.709923,-4.000000,-4.709924
0.579346,-0.500732,0.061035,-75.045799,-4.687023,-5.015267
0.571533,-0.504150,0.065430,-67.206108,-4.435114,-4.648855
0.550049,-0.512207,0.088623,-58.251907,-6.641222,-4.000000
0.547852,-0.511719,0.073730,-53.198475,-7.870229,-3.129771
0.556885,-0.505127,0.086182,-49.076336,-6.580153,-1.290076
0.571289,-0.493408,0.077393,-45.137405,-5.862596,0.908397
0.593506,-0.493408,0.039062,-46.221375,0.343511,0.679389
0.589844,-0.503662,0.024658,-45.664124,2.389313,-0.015267
0.601074,-0.494141,0.012451,-43.259541,1.587786,-1.877863
0.572021,-0.496826,-0.020508,-44.320610,-3.358779,-1.832061
0.608643,-0.481445,-0.046387,-46.885498,-2.389313,-3.694656
0.614258,-0.491455,-0.043213,-47.389313,-0.625954,-6.129771
0.614258,-0.495117,-0.039551,-47.618320,1.320611,-9.015267
0.603271,-0.492920,-0.046143,-49.083969,-0.190840,-9.702291
0.614502,-0.502686,-0.047607,-51.687023,4.694656,-12.480916
0.574219,-0.494629,-0.049316,-51.183205,-1.099237,-11.389313
0.595459,-0.498047,-0.048340,-50.770992,3.000000,-12.534351
0.553711,-0.517334,-0.053711,-47.770992,1.786260,-10.709924
0.543945,-0.512207,-0.044678,-46.427483,1.221374,-9.137404
0.541504,-0.516113,-0.044922,-46.236641,-0.725191,-6.221374
0.551025,-0.496826,-0.057373,-46.541985,-3.328244,-2.381679
0.578125,-0.485352,-0.112305,-49.358780,-1.038168,-1.954198
0.574951,-0.497314,-0.126709,-51.809162,-2.671756,-2.992366
0.589600,-0.510254,-0.144287,-55.099236,-3.175573,-4.923664
0.601318,-0.501953,-0.150635,-57.961834,-1.984733,-6.419847
0.577881,-0.508057,-0.166504,-61.198475,-4.671756,-7.732824
0.604004,-0.510742,-0.168701,-67.290077,0.541985,-10.183207
0.523682,-0.533447,-0.163574,-64.572517,-9.458015,-8.152672
0.592529,-0.499756,-0.179443,-68.770996,-1.152672,-9.061069
0.532715,-0.533936,-0.169434,-68.007637,-8.129771,-5.534351
0.536377,-0.536865,-0.171875,-64.824425,-11.435115,-3.679389
0.559814,-0.542480,-0.178711,-64.152672,-7.793893,-2.946565
0.531494,-0.543457,-0.182617,-63.557251,-13.648855,0.687023
0.570557,-0.540771,-0.192627,-66.877861,-8.725191,0.877863
0.569336,-0.536621,-0.197754,-66.854965,-12.343512,2.931298
0.598877,-0.528564,-0.206055,-66.007637,-9.335877,2.916031
0.616699,-0.527588,-0.207520,-66.427483,-2.961832,0.412214
0.586670,-0.539551,-0.192139,-63.450382,-6.305344,1.091603
0.627930,-0.553223,-0.178955,-59.106869,-1.854962,-0.511450
0.650879,-0.530762,-0.193848,-58.748093,4.190840,-4.748092
0.643555,-0.544678,-0.186768,-52.671757,5.839694,-6.351145
0.636475,-0.521973,-0.202881,-47.740459,6.374046,-9.435115
0.608154,-0.514648,-0.230225,-43.496181,3.152672,-12.229008
0.610352,-0.518311,-0.225586,-40.412212,2.221374,-14.374045
0.597412,-0.524902,-0.220459,-35.236641,1.007634,-15.557252
0.594482,-0.519775,-0.208496,-31.152672,1.053435,-14.832061
0.595703,-0.493896,-0.260010,-30.870230,1.587786,-13.053435
0.595703,-0.464600,-0.292725,-33.610687,1.793893,-11.351145
0.602295,-0.466309,-0.312256,-37.786259,2.251908,-9.374045
0.600342,-0.455078,-0.307129,-39.870228,1.908397,-8.549619
0.610840,-0.459473,-0.323975,-42.824429,3.389313,-8.801527
0.624512,-0.459473,-0.302490,-43.328243,5.717557,-8.526717
0.624756,-0.470459,-0.290039,-43.694656,7.259542,-9.091603
0.609375,-0.473389,-0.302246,-45.412212,6.160306,-9.396947
0.615723,-0.479492,-0.303711,-45.000000,6.427481,-10.381680
0.620117,-0.483398,-0.300049,-44.564884,7.160306,-11.312977
0.618652,-0.473633,-0.334473,-44.877861,7.061069,-11.763359
0.590088,-0.475098,-0.326660,-43.045803,7.503817,-9.404580
0.596680,-0.489990,-0.318115,-40.503819,5.488550,-9.641221
0.590332,-0.479736,-0.320312,-38.519085,5.114504,-8.687023
0.594727,-0.476807,-0.328613,-37.251907,4.946565,-6.526718
0.588135,-0.491455,-0.318848,-36.480915,3.938931,-4.992366
0.598145,-0.480713,-0.348877,-37.732826,1.778626,-4.709924
0.618408,-0.449951,-0.366943,-38.725189,1.519084,-4.511450
0.619141,-0.449219,-0.369385,-41.679390,4.694656,-5.587786
0.586670,-0.465576,-0.374268,-41.473282,-0.816794,-2.786260
0.599121,-0.468750,-0.383789,-42.259541,-2.503817,-1.557252
0.607666,-0.471924,-0.362305,-40.496181,-1.167939,-3.564885
0.601074,-0.483643,-0.371094,-38.358780,-1.580153,-4.656488
0.619873,-0.487793,-0.372314,-38.175571,-1.389313,-4.374046
0.623291,-0.485840,-0.384766,-38.053436,-1.091603,-3.015267
0.620605,-0.494141,-0.379639,-38.297710,-1.503817,-1.641221
0.641602,-0.481689,-0.388184,-38.633587,-0.381679,-2.030534
0.634277,-0.493652,-0.393066,-37.167938,-0.419847,-1.969466
0.634033,-0.489014,-0.395264,-36.480915,-0.114504,-2.435115
0.620361,-0.486816,-0.405273,-35.541985,-0.595420,-2.175573
0.616943,-0.486328,-0.402100,-35.511452,-1.167939,-3.160305
0.614014,-0.478027,-0.438477,-37.450382,-0.885496,-4.022901
0.605957,-0.452393,-0.450684,-39.946564,-0.114504,-3.984733
0.598389,-0.465332,-0.474365,-43.541985,0.923664,-3.946565
0.617188,-0.454102,-0.464844,-46.641220,2.557252,-2.862595
0.573486,-0.455322,-0.480225,-47.610687,-0.610687,-3.343511
0.563477,-0.449219,-0.440430,-45.969467,-2.236641,-0.961832
0.584473,-0.473145,-0.450684,-46.473282,-2.923664,1.061069
0.584961,-0.483887,-0.454346,-46.908398,-4.396946,3.091603
0.605713,-0.505859,-0.428467,-44.305344,-4.000000,6.091603
0.606934,-0.506348,-0.432373,-39.862595,-4.679389,7.450382
0.620117,-0.523682,-0.441650,-36.862595,-5.389313,7.259542
0.639404,-0.510986,-0.435303,-33.480915,-5.198473,6.748092
0.647217,-0.505371,-0.463135,-30.671755,-5.946565,5.198473
0.650635,-0.506836,-0.462158,-29.625954,-6.541985,2.083969
0.656982,-0.465820,-0.486084,-30.564886,-4.358778,0.267176
0.644531,-0.443115,-0.490234,-31.106871,-3.206107,-0.725191
0.600342,-0.447510,-0.494141,-30.557251,-4.687023,-1.152672
0.595703,-0.444092,-0.491455,-31.977098,-3.358779,1.404580
0.589355,-0.426758,-0.500488,-32.160305,-2.305344,1.305344
0.594971,-0.430664,-0.492188,-31.656488,-0.206107,2.198473
0.597168,-0.444824,-0.477539,-30.236641,0.900763,1.816794
0.596924,-0.457520,-0.489014,-30.335878,1.305344,-0.305344
0.609619,-0.421143,-0.526367,-38.435116,-1.175573,-1.786260
0.605957,-0.386230,-0.567139,-36.702290,0.702290,0.015267
0.585449,-0.444580,-0.475586,-25.839695,1.099237,-2.465649
0.575439,-0.431641,-0.522949,-24.748091,-0.282443,-1.618321
0.578857,-0.446045,-0.520752,-25.160305,1.335878,-1.793893
0.578857,-0.439941,-0.514893,-23.290077,0.656489,-1.183206
0.580811,-0.427490,-0.523926,-19.412214,0.045802,-1.335878
0.583984,-0.426270,-0.527100,-17.022902,-0.778626,-0.450382
0.573730,-0.413574,-0.545410,-15.755725,-2.671756,-0.671756
0.571533,-0.419189,-0.548096,-14.625955,-4.656488,-0.061069
0.572998,-0.420410,-0.525879,-12.778625,-6.511450,1.709924
0.586182,-0.441895,-0.518799,-10.854961,-6.381680,3.511450
0.601074,-0.433594,-0.529297,-10.702291,-6.030534,4.687023
0.609863,-0.425537,-0.538086,-11.610687,-4.709924,5.374046
0.618896,-0.423828,-0.533936,-10.786260,-3.503817,5.236641
0.627197,-0.422852,-0.538574,-10.419847,-2.557252,3.832061
0.638672,-0.421875,-0.542969,-10.320611,-0.244275,2.519084
0.641846,-0.407715,-0.552979,-11.961832,2.160305,-0.129771
0.635742,-0.398926,-0.561768,-12.923664,2.305344,-2.900763
0.613770,-0.394531,-0.563721,-14.152672,2.770992,-4.175572
0.601807,-0.409424,-0.554443,-15.450381,3.435115,-4.961832
0.568848,-0.408691,-0.568604,-17.221375,1.412214,-3.648855
0.561523,-0.413330,-0.560059,-17.404581,0.297710,-0.809160
0.556396,-0.410156,-0.559570,-19.450382,-0.137405,-0.114504
0.549561,-0.409668,-0.574463,-20.564886,-3.938931,1.259542
0.565918,-0.400879,-0.578369,-21.251909,-3.992366,2.877863
0.552734,-0.423828,-0.559326,-21.572519,-6.297710,2.633588
0.581055,-0.418945,-0.576416,-24.259542,-4.984733,2.961832
0.604492,-0.414551,-0.582275,-25.793894,-5.137404,2.129771
0.619629,-0.409912,-0.585205,-29.114504,-4.190840,-0.343511
0.625732,-0.415527,-0.584473,-28.022902,-3.809160,-1.221374
0.619629,-0.450928,-0.539307,-23.854961,-4.335878,-1.954198
0.627686,-0.477539,-0.532715,-21.282442,-3.625954,-2.015267
0.628906,-0.479492,-0.541992,-19.923664,-1.549618,-1.519084
0.636963,-0.452393,-0.568359,-22.167938,1.099237,-1.389313
0.618408,-0.445068,-0.579834,-22.412214,1.809160,-0.458015
0.598145,-0.444336,-0.586182,-21.496183,-0.099237,-0.519084
0.602051,-0.448486,-0.570312,-21.519083,-0.160305,0.923664
0.590088,-0.444824,-0.577393,-23.320610,0.412214,1.557252
0.598389,-0.416016,-0.595947,-25.610687,0.938931,0.916031
0.596924,-0.396484,-0.613770,-26.946566,1.091603,-0.335878
0.583252,-0.391357,-0.626221,-28.045801,0.580153,-0.534351
0.585938,-0.404541,-0.611084,-27.885496,0.763359,-0.740458
0.582764,-0.412842,-0.594238,-28.419847,1.839695,0.458015
0.565674,-0.427490,-0.599121,-27.267176,0.748092,1.587786
0.555664,-0.439697,-0.595459,-23.725191,-0.877863,2.427481
0.586182,-0.444824,-0.595947,-18.740458,0.793893,2.206107
0.580322,-0.416260,-0.625732,-18.091602,-0.229008,2.152672
0.591553,-0.422607,-0.629883,-17.007633,-0.580153,1.038168