acce_x,acce_y,acce_z,gyro_x,gyro_y,gyro_z
0.121094,-0.337402,0.839111,-3.152672,-3.580153,-2.496183
0.115967,-0.335693,0.831055,-2.488550,-3.450382,-2.564885
0.107178,-0.333984,0.810791,-2.320611,-4.832061,-2.251908
0.112305,-0.330322,0.817139,-2.954198,-3.893130,-1.778626
0.118164,-0.329346,0.814697,-2.633588,-2.893130,-1.977099
0.118408,-0.336914,0.815674,-1.824427,-2.679389,-3.190840
0.114746,-0.333740,0.811523,-1.969466,-2.473282,-3.221374
0.108643,-0.336670,0.824219,-2.786260,-1.954198,-2.045802
0.106201,-0.341797,0.823242,-2.679389,-2.160305,-1.557252
0.123047,-0.344238,0.824951,-1.961832,-2.091603,-1.564885
0.114258,-0.336182,0.837402,-1.534351,-2.427481,-1.267176
0.120361,-0.336914,0.839355,-0.893130,-2.419847,-1.183206
0.113525,-0.329346,0.820801,-0.740458,-3.954198,-0.900763
0.120361,-0.333252,0.818115,-1.381679,-5.183206,-1.045802
0.125977,-0.325195,0.818115,-1.618321,-6.320611,-0.893130
0.123779,-0.328613,0.820557,-2.160305,-7.236641,-0.931298
0.121094,-0.323730,0.803223,-3.580153,-7.404580,-0.236641
0.126709,-0.322754,0.791260,-4.213740,-5.389313,-0.381679
0.122559,-0.325439,0.813965,-5.007634,-5.053435,-0.396947
0.118164,-0.323242,0.809082,-5.870229,-5.717557,0.076336
0.122314,-0.318604,0.801025,-7.435114,-5.213740,0.671756
0.131104,-0.314453,0.797852,-8.610687,-4.145038,1.671756
0.125977,-0.326660,0.802979,-9.015267,-4.274809,2.122137
0.136230,-0.326904,0.810547,-8.755725,-8.877863,1.900763
0.119385,-0.349609,0.836914,-9.259542,-20.618320,-0.946565
0.163330,-0.341309,0.789551,-8.022901,-10.557252,-0.412214
0.159180,-0.363525,0.838867,-1.992366,-7.603054,-1.847328
0.158203,-0.356201,0.850586,1.610687,-6.717557,-2.702290
0.143066,-0.343994,0.814209,1.595420,-6.358778,-2.000000
0.137207,-0.332031,0.801758,-0.007634,-5.908397,-0.450382
0.138672,-0.329346,0.794189,-1.244275,-4.793893,0.778626
0.148438,-0.327148,0.791992,-1.847328,-3.358779,0.320611
0.151855,-0.323730,0.774170,-4.389313,-3.419847,0.465649
0.132324,-0.309814,0.759277,-10.000000,-3.709924,2.129771
0.138428,-0.307617,0.745117,-16.435114,-2.335878,3.038168
0.150635,-0.314941,0.744629,-24.435114,-2.343511,3.770992
0.150879,-0.310303,0.732666,-33.732826,2.198473,3.717557
0.160156,-0.315430,0.731445,-42.938931,6.687023,3.870229
0.141113,-0.323486,0.750000,-49.885498,9.305344,4.328244
0.139893,-0.333740,0.765625,-56.488548,11.221375,5.221374
0.136963,-0.339111,0.751953,-64.083969,11.587787,6.534351
0.115723,-0.350830,0.768799,-68.580154,7.450382,7.404580
0.132568,-0.368896,0.757324,-71.954201,6.274809,6.816794
0.141846,-0.375488,0.752930,-77.671753,4.053435,8.030535
0.117188,-0.371094,0.730713,-86.984734,2.099237,8.404580
0.097656,-0.365723,0.695312,-98.625954,1.549618,11.816793
0.100586,-0.371582,0.683105,-112.022903,2.251908,15.511451
0.113525,-0.390137,0.659912,-121.587784,3.458015,18.389313
0.106201,-0.434570,0.709717,-116.641220,1.549618,19.954199
0.141113,-0.489746,0.786865,-100.290077,6.496183,17.458015
0.167725,-0.530029,0.832275,-80.847328,10.900764,11.442748
0.152588,-0.559814,0.901611,-59.916031,10.083969,5.396946
0.102783,-0.564941,0.898926,-42.709923,8.923664,2.755725
0.081787,-0.550537,0.888916,-32.984734,3.190840,1.076336
0.075684,-0.535645,0.838623,-28.885496,-2.839695,-0.007634
0.059814,-0.531250,0.794678,-27.244274,-6.778626,1.335878
0.077637,-0.517334,0.780762,-27.389313,-6.984733,3.099237
0.103760,-0.507324,0.754639,-31.740458,-5.870229,4.625954
0.096436,-0.491699,0.722168,-40.625954,-5.557252,8.335877
0.084473,-0.467529,0.644043,-54.244274,-4.183206,14.007633
0.101807,-0.459717,0.605225,-72.488548,-2.763359,18.137405
0.103760,-0.444580,0.570557,-96.511452,-1.122137,19.946566
0.125488,-0.445801,0.532227,-124.847328,3.053435,21.541985
0.135742,-0.481445,0.509033,-144.763351,4.206107,24.244274
0.151123,-0.535645,0.597900,-143.221375,3.450382,23.450382
0.173340,-0.595459,0.661133,-132.190842,7.129771,19.389313
0.160400,-0.620117,0.710938,-119.854965,7.687023,14.549619
0.135986,-0.637451,0.716064,-113.496185,6.709924,11.053435
0.087158,-0.641357,0.696777,-115.282440,1.091603,10.374045
0.072266,-0.648926,0.680176,-117.534348,-5.206107,12.038168
0.077393,-0.681396,0.691162,-116.282440,-7.625954,13.748092
0.100830,-0.705811,0.705078,-112.671753,-3.511450,14.145039
0.108154,-0.730469,0.702637,-107.938934,3.106870,14.748092
0.091309,-0.732666,0.699463,-103.160309,8.183207,15.854961
0.080322,-0.735596,0.666748,-101.091606,12.633588,17.328245
0.071777,-0.726807,0.598877,-105.900764,13.328244,17.679390
0.062500,-0.716309,0.545654,-112.679390,9.641221,18.809160
0.075439,-0.728516,0.556885,-110.541985,5.488550,18.122137
0.124023,-0.749756,0.577148,-106.091606,8.137404,15.145039
0.110352,-0.769775,0.592529,-102.809158,6.358778,11.702291
0.116943,-0.779541,0.584717,-94.358780,7.236641,7.312977
0.113525,-0.802979,0.630127,-79.809158,8.496183,4.893130
0.089111,-0.828125,0.663330,-67.893127,7.893130,2.183206
0.065430,-0.836182,0.623047,-64.427483,5.656488,0.000000
0.060059,-0.829834,0.604736,-66.007637,3.183206,-1.343511
0.036865,-0.805664,0.557617,-70.748093,-3.893130,0.068702
0.028320,-0.801270,0.518799,-78.587784,-6.984733,3.549618
0.046875,-0.799072,0.494141,-88.862595,-6.908397,7.427481
0.064209,-0.785400,0.451416,-96.480919,-3.358779,12.145039
0.079102,-0.784180,0.442871,-95.488548,0.908397,17.572519
0.083740,-0.788086,0.448730,-91.534348,6.664122,19.778625
0.083740,-0.796631,0.461426,-88.557251,12.274809,21.946566
0.064941,-0.807861,0.444336,-88.755722,11.167939,22.549618
0.085449,-0.812988,0.415039,-87.114502,10.702291,19.725191
0.092773,-0.847656,0.478760,-80.221375,11.900764,16.381680
0.083984,-0.869629,0.510254,-72.366409,11.824428,13.511451
0.065918,-0.864990,0.469727,-66.709923,9.183207,12.045801
0.055664,-0.853516,0.443359,-64.190842,4.832061,11.427481
0.037598,-0.853027,0.421875,-63.854961,1.198473,11.572519
0.046143,-0.835693,0.389160,-66.656487,-1.633588,12.137404
0.058105,-0.836914,0.348877,-73.816795,-2.809160,13.381680
0.071289,-0.816162,0.295166,-85.862595,-2.236641,14.877863
0.072998,-0.805420,0.247314,-102.290077,2.977099,18.916031
0.075684,-0.794189,0.200928,-118.450378,8.374045,23.152672
0.096924,-0.803955,0.197021,-122.442749,14.061069,24.488550
0.121094,-0.827393,0.245117,-115.221375,19.618320,21.916031
0.101074,-0.866943,0.292725,-107.229004,21.389313,16.213741
0.083252,-0.902832,0.331787,-104.496185,20.160305,10.587787
0.049072,-0.916992,0.342529,-105.015266,14.412213,6.832061
0.030273,-0.942139,0.350342,-100.564888,6.328244,4.480916
0.013916,-0.968506,0.406006,-87.641220,0.946565,4.839694
0.009277,-1.005859,0.433105,-76.717560,-0.656489,4.961832
0.014404,-1.001709,0.395508,-71.442749,-2.190840,5.519084
0.002441,-0.986816,0.343018,-69.274811,-4.877862,6.786260
0.009766,-0.975830,0.302490,-70.175575,-7.862596,8.007633
0.027588,-0.972412,0.253906,-75.328247,-5.748092,9.458015
0.049316,-0.958252,0.216553,-77.366409,-1.396947,10.549619
0.056641,-0.919434,0.179443,-76.648857,2.824427,13.427481
0.037842,-0.947266,0.212646,-74.351143,8.595420,15.946565
0.015625,-0.956299,0.207275,-73.954201,12.122137,18.022902
-0.007080,-0.956543,0.183838,-74.938934,12.633588,20.236641
-0.012451,-0.964844,0.180176,-67.770996,13.412213,28.717558
-0.018311,-0.939941,0.156738,-71.412216,12.137404,24.358778
-0.011475,-0.981201,0.168213,-71.083969,8.709924,24.770992
0.007568,-0.975586,0.145508,-73.977097,7.732824,23.625954
0.033203,-0.982422,0.140625,-76.366409,7.076336,20.068703
0.037109,-0.981445,0.122070,-78.396950,5.641222,15.190840
0.041992,-0.980469,0.117920,-79.793892,3.778626,9.793893
0.033936,-0.963623,0.102783,-77.763359,0.496183,5.969466
0.020020,-0.979980,0.109375,-74.366409,0.114504,2.511450
0.012207,-0.978027,0.121582,-71.022903,-0.679389,0.801527
0.007812,-0.992676,0.127930,-70.137405,-0.061069,-1.229008
-0.021729,-0.959473,0.106201,-72.572517,-1.106870,-0.633588
-0.028076,-0.950195,0.084717,-75.664124,-1.778626,0.274809
-0.038086,-0.948975,0.064941,-79.007637,-3.259542,2.274809
-0.044922,-0.936768,0.059570,-84.267174,-5.206107,5.786260
-0.039795,-0.946777,0.034668,-89.946564,-6.534351,8.290076
-0.024902,-0.939697,0.041992,-94.206108,-6.541985,11.748092
0.006104,-0.971680,0.041504,-95.213737,-1.099237,13.946565
0.011475,-0.979736,0.028809,-92.412216,4.343512,16.328245
0.020020,-1.000244,0.033691,-81.503815,9.091603,19.129770
0.018311,-1.003662,0.028564,-71.480919,10.664123,18.572519
0.018311,-1.035889,0.048096,-63.458015,13.137404,17.068703
0.021973,-1.051758,0.010498,-60.404579,13.541985,14.496183
0.024414,-1.047119,-0.010498,-59.290077,13.267176,12.122137
0.017822,-1.051758,-0.026611,-57.931297,12.854961,9.893129
0.010498,-1.057129,-0.028076,-58.770992,11.328244,6.877862
0.010986,-1.055664,-0.061035,-59.908398,10.061069,2.900763
0.010010,-1.045410,-0.064941,-59.664124,8.580153,-0.366412
0.010010,-1.051025,-0.079102,-58.297710,8.091603,-4.358778
-0.005615,-1.045654,-0.072998,-57.595421,7.618320,-7.946565
-0.011719,-1.050049,-0.081299,-58.335876,7.435114,-10.870229
-0.028320,-1.037109,-0.105225,-59.396946,5.335878,-11.847328
-0.034668,-1.035400,-0.098877,-59.557251,5.458015,-12.381680
-0.038330,-1.031494,-0.092773,-57.885498,7.244275,-12.114504
-0.058105,-1.041748,-0.073242,-55.740459,6.938931,-10.328244
-0.064941,-1.047852,-0.078613,-53.900764,6.129771,-8.389313
-0.056152,-1.054688,-0.074219,-52.053436,8.419847,-4.832061
-0.078369,-1.064697,-0.061768,-50.167938,8.877863,-0.511450
-0.077637,-1.058350,-0.085449,-49.801525,9.435115,3.427481
-0.068359,-1.054688,-0.115723,-50.755726,10.908397,5.916030
-0.065430,-1.049316,-0.136230,-51.923664,11.175572,8.549619
-0.050781,-1.028564,-0.162842,-52.717556,12.801527,11.000000
-0.043457,-1.023193,-0.214111,-56.770992,13.633588,12.030535
-0.018555,-1.006592,-0.241211,-59.870228,14.854961,11.793893
-0.023926,-0.989502,-0.239990,-60.114502,13.923664,11.000000
-0.030029,-1.000732,-0.236816,-60.893131,12.595420,9.419847
-0.046631,-1.004395,-0.227783,-61.885498,10.145039,7.679389
-0.054443,-1.010498,-0.213379,-60.931297,7.954198,6.519084
-0.049805,-1.032715,-0.185791,-58.442749,8.633588,6.190840
-0.049072,-1.046143,-0.164551,-55.557251,8.908397,5.786260
-0.058350,-1.057861,-0.145264,-52.946564,9.305344,6.267176
-0.063965,-1.062744,-0.156494,-48.374046,7.152672,7.404580
-0.060303,-1.061279,-0.168701,-43.213741,7.824428,8.374045
-0.065674,-1.058838,-0.171143,-39.893131,7.618320,8.160305
-0.060059,-1.041016,-0.202148,-38.977100,7.824428,8.625955
-0.052246,-1.025146,-0.220459,-40.564884,6.076336,8.862596
-0.047119,-1.015137,-0.248535,-43.671757,3.816794,7.778626
-0.036133,-1.010986,-0.243164,-49.458015,4.106870,7.320611
-0.045410,-0.996826,-0.272705,-50.465649,2.916031,5.793893
-0.044922,-0.974121,-0.301514,-53.221375,4.412214,5.557252
-0.041260,-0.970459,-0.323242,-57.687023,6.603054,5.244275
-0.038330,-0.974365,-0.333496,-63.175571,8.847328,4.961832
-0.045410,-0.975342,-0.332520,-64.580154,9.717557,5.297710
-0.058838,-0.983887,-0.303711,-63.870228,11.099236,6.068702
-0.078125,-1.009521,-0.302490,-57.030533,11.114504,10.519084
-0.079834,-0.990479,-0.309082,-61.885498,7.748092,7.435114
-0.085205,-1.009521,-0.303955,-63.633587,6.213740,8.633588
-0.074463,-1.012207,-0.300781,-63.442749,6.206107,9.870229
-0.072754,-1.011719,-0.317139,-62.625954,5.061069,11.748092
-0.067871,-1.027588,-0.325684,-59.801525,4.633588,12.854961
-0.059082,-1.026367,-0.322998,-53.625954,4.671756,13.221375
-0.048340,-1.035645,-0.320312,-46.496181,6.106870,12.664123
-0.057373,-1.034912,-0.315918,-42.801525,6.442748,11.053435
-0.055176,-1.026611,-0.338867,-42.091602,5.068702,9.083969
-0.058105,-1.011475,-0.345459,-41.114502,3.267176,7.458015
-0.046143,-1.004639,-0.357910,-41.732826,1.893130,5.496183
-0.041260,-0.995117,-0.398193,-43.236641,1.786260,2.938931
-0.058594,-0.950684,-0.459961,-47.732826,0.236641,0.351145
-0.054932,-0.953369,-0.451904,-50.343510,-1.465649,-2.358779
-0.059814,-0.964111,-0.446045,-51.549618,-1.206107,-4.526718
-0.069580,-0.980957,-0.429932,-53.549618,0.442748,-5.198473
-0.075928,-0.973877,-0.426514,-54.328243,2.549618,-4.763359
-0.087646,-0.990967,-0.400635,-54.488548,4.030534,-3.885496
-0.091797,-1.001465,-0.398682,-54.290077,4.801527,-2.893130
-0.097168,-1.003418,-0.404053,-54.526718,4.816794,-1.687023
-0.096924,-1.009033,-0.406006,-53.007633,4.236641,-0.190840
-0.088623,-1.010010,-0.407471,-49.496181,3.473282,0.862595
-0.071533,-1.014648,-0.428223,-46.183205,2.503817,0.625954
-0.059326,-1.008545,-0.414551,-43.755726,1.702290,0.946565
-0.057617,-1.010010,-0.424072,-41.595421,0.900763,0.137405
-0.040771,-1.002930,-0.423096,-38.755726,1.343511,-1.274809
-0.035889,-0.994141,-0.448730,-38.572517,0.007634,-3.175573
-0.016602,-0.972656,-0.468994,-41.992367,-0.541985,-5.183206
-0.005127,-0.952637,-0.512695,-46.503819,0.297710,-7.419847
0.000488,-0.928711,-0.534668,-51.282444,2.267176,-9.641221
0.004639,-0.921387,-0.548340,-57.068703,4.480916,-11.679389
-0.015137,-0.902832,-0.563477,-62.549618,6.305344,-13.419847
-0.024902,-0.901123,-0.545166,-67.557251,8.419847,-14.229008
-0.044434,-0.905762,-0.565918,-72.290077,10.328244,-13.763359
-0.060303,-0.927246,-0.520996,-76.870232,12.122137,-12.213740
-0.076904,-0.938232,-0.527588,-77.374046,11.496183,-9.908397
-0.085938,-0.942871,-0.502686,-75.687019,12.893129,-7.061069
-0.099609,-0.954102,-0.511230,-73.809158,14.091603,-3.557252
-0.101807,-0.958740,-0.500488,-70.870232,12.679389,0.496183
-0.104004,-0.966309,-0.501465,-68.992363,11.183207,3.885496
-0.094238,-0.966309,-0.503662,-66.480919,9.847328,6.320611
-0.073242,-0.955566,-0.508301,-63.824429,8.244275,7.129771
-0.055420,-0.940430,-0.557617,-63.984734,7.717557,6.557252
-0.036133,-0.912598,-0.598877,-67.244278,8.206107,5.740458
-0.005615,-0.918457,-0.621094,-68.519081,9.587787,2.641221
-0.002686,-0.922363,-0.621826,-66.847328,13.793893,-1.022901
-0.016602,-0.914795,-0.615234,-65.129768,15.480916,-3.717557
-0.036377,-0.913574,-0.618164,-65.389313,14.099236,-6.679389
-0.049561,-0.902832,-0.639404,-66.099236,15.282443,-8.755725
-0.063232,-0.917725,-0.611084,-61.687023,14.809160,-8.687023
-0.083984,-0.906738,-0.617432,-58.251907,12.351145,-7.412214
-0.085938,-0.918213,-0.633301,-55.007633,10.709924,-7.099236
-0.090820,-0.913330,-0.621338,-51.885498,8.083969,-5.099236
-0.083740,-0.902100,-0.623047,-49.351147,6.221374,-3.312977
-0.074951,-0.902100,-0.645508,-48.900764,5.572519,-2.427481
-0.077637,-0.892578,-0.660645,-48.900764,4.679389,-1.389313
-0.062500,-0.853516,-0.698486,-50.709923,4.763359,-0.954198
-0.078857,-0.842773,-0.711670,-50.984734,1.877863,-0.595420
-0.070068,-0.844238,-0.697021,-49.977100,0.435115,-0.694656
-0.059570,-0.843994,-0.706055,-51.137405,0.694656,-0.564885
-0.054199,-0.832031,-0.714600,-52.328243,1.351145,-0.091603
-0.066895,-0.828125,-0.729980,-54.687023,0.038168,-0.404580
-0.068848,-0.824219,-0.746826,-57.503819,-0.435115,-0.450382
-0.061035,-0.820312,-0.740479,-58.702290,0.549618,0.969466
-0.073486,-0.834717,-0.709961,-54.412212,-0.893130,2.503817
-0.085938,-0.837646,-0.711914,-51.374046,-3.931298,3.145038
-0.080078,-0.845215,-0.711670,-50.503819,-5.335878,3.213740
-0.066406,-0.861328,-0.700439,-46.969467,-5.229008,3.832061
-0.067383,-0.854248,-0.718506,-44.206108,-5.816794,3.931298
-0.057129,-0.865234,-0.724854,-41.587788,-5.694656,3.213740
-0.058594,-0.860107,-0.705566,-35.419846,-5.969466,3.312977
-0.047119,-0.868896,-0.709473,-32.015266,-6.786260,2.656489
-0.040771,-0.854492,-0.724121,-31.450382,-4.862596,1.458015
-0.042725,-0.845215,-0.738037,-30.458015,-3.694656,-0.083969
-0.038574,-0.826416,-0.754150,-29.862595,-2.343511,-1.427481
-0.035156,-0.801025,-0.766113,-29.770992,-1.358779,-3.145038
-0.047363,-0.781982,-0.794189,-31.083969,-1.977099,-5.572519
-0.043213,-0.786377,-0.780029,-32.961834,-0.938931,-7.305344
-0.049561,-0.770264,-0.775635,-32.206108,2.045802,-7.465649
-0.074463,-0.789551,-0.748291,-29.358778,-0.572519,-7.145038
-0.094238,-0.798828,-0.754639,-27.877863,-3.145038,-7.358778
-0.086182,-0.791748,-0.745361,-26.251909,-3.709924,-6.572519
-0.071289,-0.776611,-0.761963,-24.572519,-2.770992,-5.923664
-0.078125,-0.768799,-0.770508,-25.259542,-2.511450,-4.641222
-0.078369,-0.767822,-0.773682,-25.885496,-2.000000,-4.954198
-0.082031,-0.745850,-0.796875,-29.389313,-0.702290,-4.076336
-0.080322,-0.720459,-0.823242,-32.114502,-1.068702,-2.923664
-0.099121,-0.722656,-0.821289,-34.137405,-2.954198,-2.175573
-0.103027,-0.777100,-0.796143,-34.824429,-5.076336,-0.946565
-0.097168,-0.797119,-0.786133,-34.656490,-4.190840,0.931298
-0.094727,-0.822998,-0.779541,-32.183205,-5.381680,3.465649
-0.073975,-0.839111,-0.811768,-33.076336,-4.358778,4.931298
-0.049561,-0.815918,-0.838379,-35.549618,-3.190840,5.526718