acce_x,acce_y,acce_z,gyro_x,gyro_y,gyro_z
0.146484,-0.347656,0.767822,-12.938931,1.450382,7.137404
0.170898,-0.348633,0.784912,-11.190840,6.259542,5.763359
0.175537,-0.365234,0.823730,-8.000000,5.106870,1.732824
0.169678,-0.359619,0.847168,-5.366412,3.908397,-1.129771
0.166992,-0.355713,0.852051,-4.160306,3.129771,-4.221374
0.169434,-0.354980,0.854736,-3.587786,0.824427,-6.206107
0.161133,-0.351074,0.842529,-5.381680,0.175573,-5.366412
0.129639,-0.349854,0.822266,-9.022901,0.114504,-3.748092
0.148682,-0.343750,0.819824,-12.961832,-3.450382,-2.603053
0.139648,-0.344971,0.785400,-18.351145,-5.167939,-1.984733
0.135010,-0.349365,0.777100,-22.732824,-5.862596,-0.656489
0.120605,-0.355957,0.790527,-24.908398,-7.839694,0.931298
0.121094,-0.361572,0.781982,-24.755726,-9.480916,0.564885
0.105957,-0.369873,0.776123,-26.244274,-12.755725,1.465649
0.102539,-0.366943,0.776855,-27.358778,-11.938931,4.396946
0.115967,-0.379639,0.794434,-26.519083,-10.145039,6.083970
0.127197,-0.381836,0.794922,-26.870230,-5.465649,6.809160
0.158936,-0.383545,0.817871,-26.183207,3.145038,6.435114
0.146973,-0.393555,0.813965,-27.404581,8.335877,7.091603
0.129639,-0.377686,0.779541,-31.541985,10.564885,8.725191
0.125977,-0.366455,0.751953,-40.511452,13.450381,9.755725
0.122314,-0.366211,0.722168,-52.015266,17.748091,11.839695
0.118408,-0.359619,0.712402,-65.274811,21.274809,13.557252
0.106445,-0.343750,0.672852,-81.511452,20.503817,15.251908
0.112061,-0.351074,0.601807,-97.145035,19.824427,17.923664
0.103516,-0.356201,0.589600,-107.984734,14.961832,19.572519
0.110596,-0.372803,0.599365,-122.343513,11.770992,21.137405
0.103271,-0.381592,0.583252,-136.847336,7.389313,20.961832
0.134033,-0.414307,0.589355,-142.526718,-1.396947,21.320610
0.163330,-0.466553,0.626221,-137.992371,3.961832,18.809160
0.181641,-0.532471,0.694336,-123.358780,9.709924,14.183207
0.158203,-0.548828,0.753662,-113.465652,9.091603,10.450381
0.141357,-0.558838,0.743652,-110.458015,8.793893,6.893130
0.146729,-0.556641,0.714600,-109.916031,9.244275,5.167939
0.107422,-0.573242,0.708252,-110.618324,10.083969,6.450382
0.081055,-0.581543,0.722656,-113.160309,6.732824,7.541985
0.087402,-0.590576,0.697021,-115.656487,8.419847,10.381680
0.116211,-0.636230,0.723877,-104.656487,7.900764,11.389313
0.127441,-0.668701,0.758057,-88.053436,12.389313,8.916031
0.106445,-0.680908,0.761230,-79.358780,8.320611,4.412214
0.092041,-0.664307,0.724854,-77.786263,7.053435,1.671756
0.086426,-0.659180,0.673096,-72.694656,1.564885,2.183206
0.095703,-0.661865,0.695801,-70.274811,2.564885,4.763359
0.053467,-0.691895,0.704102,-66.809158,-6.931298,2.908397
0.106934,-0.664795,0.670410,-68.366409,-4.603054,3.267176
0.086670,-0.687500,0.658447,-64.374046,-6.045802,2.992366
0.125732,-0.673584,0.664795,-64.183205,-1.099237,3.893130
0.102539,-0.672363,0.650635,-66.824425,1.290076,5.618320
0.042969,-0.672119,0.605957,-73.091606,0.122137,7.580153
0.035400,-0.642822,0.572510,-84.419846,4.343512,12.946565
0.031982,-0.659180,0.516113,-97.511452,11.396947,20.053434
0.055664,-0.653076,0.485596,-109.610687,4.389313,24.984734
0.094482,-0.659912,0.457764,-127.419846,33.076336,29.022902
0.029785,-0.719238,0.465576,-130.625961,31.358778,32.274811
0.069092,-0.722412,0.493652,-129.145035,32.374046,33.412212
0.139160,-0.740479,0.473145,-120.435112,35.259541,33.351147
0.171387,-0.778320,0.530518,-105.946564,39.068703,27.961832
0.153809,-0.818115,0.612061,-91.763359,35.251907,16.267176
0.037109,-0.856934,0.665527,-76.931297,7.664122,5.282443
0.035156,-0.845459,0.656494,-70.587784,-9.519084,-1.297710
0.043701,-0.835205,0.642822,-69.854965,-13.328244,-5.458015
0.034912,-0.811768,0.640381,-74.458015,-6.625954,-4.679389
0.067383,-0.819336,0.596680,-81.572517,8.916031,-0.190840
0.044189,-0.810547,0.518311,-89.129768,22.389313,6.702290
0.015869,-0.812744,0.491943,-88.312981,12.091603,11.427481
-0.073730,-0.825195,0.519531,-89.312981,15.587787,17.404581
-0.021973,-0.856934,0.458008,-85.442749,15.885496,19.435114
0.057129,-0.834717,0.484619,-73.099236,20.839695,21.748091
0.020264,-0.871826,0.527100,-57.435116,18.045801,19.175573
0.044434,-0.880859,0.539795,-46.442749,11.419847,14.251908
0.062988,-0.874756,0.530273,-39.908398,7.282443,8.564885
0.062988,-0.866943,0.524414,-36.595421,3.389313,3.358779
0.057617,-0.881592,0.526123,-34.114502,1.618321,-0.458015
0.038818,-0.860107,0.488770,-34.664124,0.931298,-1.335878
0.024902,-0.852295,0.467529,-38.687023,1.427481,-0.435115
0.028076,-0.848633,0.424316,-43.328243,7.519084,0.534351
0.012451,-0.827393,0.378662,-50.625954,13.534351,3.778626
-0.013916,-0.804688,0.328857,-58.633587,13.732824,8.916031
-0.020020,-0.809814,0.305420,-59.763359,2.801527,12.076336
-0.053711,-0.838623,0.359619,-57.709923,5.870229,15.160305
-0.004150,-0.829346,0.394775,-58.740459,4.167939,16.213741
0.012207,-0.869385,0.367920,-57.618320,3.946565,15.343512
0.063232,-0.860107,0.381836,-58.251907,4.229008,13.000000
0.051025,-0.886230,0.392578,-55.938931,-2.244275,5.351145
0.033447,-0.896729,0.409180,-54.335876,-6.511450,0.969466
0.016602,-0.895264,0.394531,-54.465649,-11.809160,-0.618321
0.022949,-0.876221,0.346924,-59.061069,-8.717557,-0.893130
0.005371,-0.868408,0.326416,-64.877861,-6.770992,0.297710
0.003418,-0.850586,0.269531,-73.015266,-4.603054,2.526718
-0.009277,-0.833740,0.200684,-82.488548,-2.572519,6.679389
-0.025879,-0.833252,0.176514,-91.389313,-10.938931,8.038168
0.045410,-0.816650,0.145508,-106.633591,4.969466,13.312977
0.058105,-0.845703,0.174072,-108.198471,12.541985,15.221375
0.020508,-0.882812,0.251221,-94.236641,18.022902,17.419847
-0.003662,-0.938721,0.352051,-78.992363,13.954199,17.580153
-0.020020,-0.956299,0.360596,-72.343513,2.198473,13.564885
0.017822,-0.955566,0.334717,-70.282440,2.740458,10.893129
0.024414,-0.986084,0.359375,-65.877861,1.679389,10.122137
0.007568,-0.980713,0.343018,-62.557251,0.893130,6.870229
0.041016,-0.959229,0.281494,-64.900764,6.450382,4.664122
0.030762,-0.942383,0.232910,-67.511452,6.778626,3.549618
0.035889,-0.943359,0.204346,-72.809158,5.587786,1.923664
0.056396,-0.921631,0.156738,-79.656487,8.488549,2.580153
0.042969,-0.920654,0.120361,-83.267174,12.091603,4.297710
0.033936,-0.947754,0.153564,-80.000000,10.946565,5.091603
0.012939,-0.955811,0.170654,-75.679390,7.931298,4.541985
-0.026367,-0.974365,0.199707,-67.274811,5.877862,7.809160
-0.056396,-0.990479,0.219482,-63.801525,4.251908,10.984733
-0.064941,-1.006836,0.229980,-62.793892,7.312977,15.656488
-0.069092,-1.013672,0.234863,-58.175571,13.832061,22.236641
-0.054199,-1.040283,0.257324,-51.137405,16.534351,26.549618
-0.051758,-1.051270,0.250488,-46.534351,15.236641,25.633587
-0.010010,-1.026367,0.194092,-44.427483,16.740458,21.732824
0.002197,-1.039551,0.175049,-40.641220,12.175572,13.984733
0.018311,-1.026611,0.146729,-39.152672,4.671756,3.480916
0.025635,-1.008789,0.101318,-39.755726,-0.946565,-5.572519
0.001221,-0.999023,0.091553,-41.221375,-5.587786,-11.236641
-0.013184,-0.986572,0.105469,-41.541985,-7.076336,-13.961832
-0.040771,-0.986328,0.114014,-39.580154,-6.274809,-12.282443
-0.069824,-1.010498,0.166504,-35.625954,-6.167939,-8.923664
-0.070801,-1.019531,0.178223,-34.190838,-5.068702,-4.282443
-0.061279,-1.023926,0.162354,-35.122139,-0.244275,0.885496
-0.063965,-1.020020,0.140625,-35.251907,3.488550,5.320611
-0.061279,-1.013916,0.106934,-34.274811,4.687023,8.396947
-0.053711,-0.993164,0.067627,-37.122139,8.427481,11.488549
-0.049316,-0.984863,0.038574,-40.709923,11.160305,13.885496
-0.043701,-0.969971,0.035889,-42.870228,12.152672,15.534351
-0.032471,-0.976318,0.031006,-43.068703,10.732824,14.679389
-0.027832,-0.976074,0.025879,-45.381680,7.038168,10.900764
-0.009766,-0.964600,0.008301,-48.564884,5.725191,6.480916
-0.018799,-0.964600,0.002197,-50.709923,2.083969,2.320611
-0.010742,-0.976318,0.008301,-52.488548,3.496183,-0.641221
-0.026855,-0.976074,0.024902,-49.625954,2.549618,-1.748092
-0.053955,-0.998291,0.044434,-46.977100,-0.541985,-1.625954
-0.047119,-1.001465,0.051025,-45.862595,4.480916,-0.717557
-0.060791,-1.002930,0.062988,-42.778625,4.740458,0.931298
-0.063232,-1.006592,0.064453,-40.633587,4.687023,3.717557
-0.072754,-1.010010,0.042236,-41.366413,4.236641,6.885496
-0.051514,-1.006348,0.030029,-44.343510,6.320611,7.923664
-0.049561,-1.001709,0.020996,-45.648853,4.969466,8.450381
-0.056396,-0.988037,-0.001953,-45.145039,4.396946,9.526717
-0.071289,-0.993652,-0.013428,-43.587788,2.656489,10.122137
-0.083740,-1.009033,-0.020020,-43.396946,-0.366412,10.358779
-0.064697,-0.997314,-0.012207,-44.587788,1.786260,11.435115
-0.057861,-0.996582,-0.002686,-42.404579,3.091603,12.404580
-0.059082,-1.022705,-0.002197,-39.992367,1.305344,11.854961
-0.053467,-1.029785,-0.005615,-38.793892,2.320611,11.801527
-0.001709,-1.029785,0.006836,-50.145039,45.106869,15.213740
-0.216064,-1.098877,0.014160,-34.137405,-1.786260,6.244275
-0.008057,-0.996338,-0.004150,-36.969467,6.427481,6.358778
-0.011230,-1.010986,-0.004639,-37.389313,14.442748,6.862596
-0.026855,-1.014160,-0.029541,-37.366413,8.480916,0.587786
-0.012695,-0.995605,-0.059082,-35.534351,2.961832,-1.671756
-0.014893,-0.996582,-0.038818,-33.206108,3.496183,-2.977099
-0.042236,-1.018311,-0.019775,-29.007633,0.603053,-3.015267
-0.033203,-1.010010,-0.010742,-27.641222,3.343511,-1.229008
-0.041748,-1.021973,-0.002441,-25.656488,1.572519,-1.076336
-0.051514,-1.019043,-0.009521,-23.488550,3.832061,0.328244
-0.043945,-1.015625,-0.023438,-22.832062,6.931298,2.267176
-0.060547,-1.004883,-0.064209,-24.114504,8.389313,4.259542
-0.055908,-0.986572,-0.104736,-26.167938,7.893130,4.755725
-0.047607,-0.981201,-0.140381,-30.152672,7.450382,5.007634
-0.055176,-0.971436,-0.168701,-35.671757,7.282443,4.862596
-0.062500,-0.977051,-0.185547,-41.282444,6.709924,5.114504
-0.073486,-0.978760,-0.183838,-46.526718,5.732824,5.648855
-0.077148,-0.986084,-0.179932,-51.763359,6.740458,6.541985
-0.080811,-0.997314,-0.187256,-57.587788,9.061069,9.442748
-0.089844,-1.003174,-0.168213,-61.374046,11.511451,11.534351
-0.094482,-1.024170,-0.144775,-61.160305,12.992367,13.671756
-0.121826,-1.040283,-0.122803,-59.633587,11.854961,15.152672
-0.111572,-1.052979,-0.106445,-58.496181,12.557252,17.030535
-0.112305,-1.059326,-0.105957,-57.862595,14.709924,18.465649
-0.115967,-1.063965,-0.111572,-55.206108,14.366412,18.763359
-0.107666,-1.065674,-0.120117,-53.007633,12.664123,18.793894
-0.108887,-1.054199,-0.147461,-51.801525,11.389313,17.274809
-0.096436,-1.053223,-0.161865,-50.183205,8.740458,14.748092
-0.087891,-1.047607,-0.172852,-49.320610,5.251908,11.229008
-0.072998,-1.030762,-0.195801,-50.038166,6.358778,8.671756
-0.059570,-1.020752,-0.199707,-50.541985,8.893129,6.916030
-0.075928,-1.015137,-0.203369,-49.549618,9.122137,4.267176
-0.094971,-1.033203,-0.181885,-45.488548,6.053435,2.572519
-0.104248,-1.021729,-0.179932,-42.839695,3.938931,1.213740
-0.104004,-1.004150,-0.188965,-42.755726,6.305344,1.389313
-0.099609,-1.007568,-0.202637,-43.106869,9.458015,1.236641
-0.109131,-1.003662,-0.190430,-43.129772,10.458015,2.236641
-0.115723,-0.999023,-0.221680,-44.641220,9.633588,2.992366
-0.100830,-0.979736,-0.239990,-44.656490,11.679389,7.671756
-0.116943,-0.977783,-0.250977,-45.229008,10.221375,8.030535
-0.115234,-0.985107,-0.224609,-43.862595,5.984733,6.129771
-0.121094,-1.009521,-0.235352,-39.206108,1.717557,5.396946
-0.116699,-1.019287,-0.227051,-36.480915,-1.473282,5.129771
-0.096680,-1.012451,-0.242432,-37.244274,0.832061,4.770992
-0.081543,-1.010986,-0.270752,-40.778625,4.664122,4.557252
-0.072510,-0.997559,-0.312744,-46.488548,7.961832,4.038168
-0.060059,-0.986572,-0.326416,-51.068703,10.435115,2.587786
-0.076416,-0.989258,-0.336426,-55.000000,9.045801,-0.175573
-0.064941,-0.979004,-0.363770,-58.511452,9.854961,-2.000000
-0.080322,-0.985840,-0.343506,-57.954197,8.938931,-2.938931
-0.099854,-1.000488,-0.316895,-55.122139,6.778626,-3.954198
-0.120850,-1.010254,-0.301514,-54.465649,5.282443,-4.748092
-0.132324,-1.014648,-0.304688,-54.206108,4.251908,-3.702290
-0.147217,-1.011719,-0.289795,-54.923664,2.297710,-2.824427
-0.136475,-0.993896,-0.328613,-56.870228,4.984733,0.496183
-0.134766,-0.989746,-0.377930,-62.839695,6.870229,2.427481
-0.125488,-0.982422,-0.419434,-68.809158,9.793893,3.732824
-0.123291,-0.973145,-0.448730,-73.755722,10.244275,4.488550
-0.144043,-0.967529,-0.465332,-75.793892,6.450382,4.587786
-0.141113,-0.975586,-0.453613,-77.076332,1.679389,4.396946
-0.148438,-0.972412,-0.448486,-78.160309,0.824427,5.885496
-0.171143,-0.981201,-0.426758,-77.664124,-2.335878,7.152672
-0.146973,-0.987061,-0.403076,-73.381676,-0.175573,9.992367
-0.158936,-1.001953,-0.356934,-63.221375,-0.961832,13.007633
-0.160645,-1.021973,-0.336914,-51.267174,-4.290076,13.580153
-0.168945,-1.015869,-0.338623,-42.946564,-8.473283,14.740458
-0.139404,-1.023438,-0.336914,-35.931297,-7.641222,15.763359
-0.138672,-1.040771,-0.317871,-29.809160,-8.068703,18.038168
-0.101807,-1.041748,-0.355225,-21.335878,-5.763359,14.946565
-0.080566,-1.002197,-0.369385,-19.816793,-3.679389,12.274809
-0.059570,-0.998047,-0.387207,-17.206106,-2.053435,6.236641
-0.055420,-0.970703,-0.422852,-16.396946,-0.213740,0.572519
-0.042725,-0.944580,-0.444824,-18.473282,1.854962,-4.007634
-0.046631,-0.924072,-0.458008,-21.725191,5.427481,-6.572519
-0.071045,-0.931885,-0.449463,-22.908398,6.145038,-9.038168
-0.083008,-0.938477,-0.437500,-24.259542,6.503817,-10.091603
-0.103271,-0.935303,-0.453857,-27.381680,6.282443,-10.923664
-0.125244,-0.943115,-0.441895,-29.305344,5.923664,-10.641221
-0.114990,-0.948486,-0.410156,-27.503817,8.351145,-8.381680
-0.111572,-0.938477,-0.417969,-29.152672,13.282443,-5.198473
-0.105713,-0.916016,-0.480713,-35.351147,17.213741,-2.770992
-0.122803,-0.903809,-0.509277,-39.969467,14.404580,-0.572519
-0.118164,-0.904541,-0.516357,-39.793892,10.587787,-0.389313
-0.118164,-0.927246,-0.499756,-38.007633,7.251908,-0.152672
-0.108398,-0.963867,-0.481689,-35.885498,7.992366,-0.053435
-0.104004,-0.970947,-0.481445,-36.641220,10.572519,-0.435115
-0.103271,-0.970215,-0.487793,-37.908398,12.419847,-1.610687
-0.103271,-0.978271,-0.495361,-36.236641,12.129771,-3.328244
-0.103271,-0.979980,-0.500488,-35.374046,11.282443,-5.572519
-0.097412,-0.974609,-0.532227,-38.748093,12.038168,-7.473282
-0.091797,-0.956299,-0.545654,-41.496181,13.969465,-9.641221
-0.101318,-0.954102,-0.552246,-40.740459,12.145039,-12.786260
-0.089844,-0.922852,-0.591553,-47.030533,13.832061,-14.954199
-0.112061,-0.891113,-0.611084,-56.015266,14.015267,-15.221375
-0.133057,-0.877441,-0.614746,-61.145039,14.725191,-13.671756
-0.164795,-0.890137,-0.556396,-62.969467,10.610687,-9.290076
-0.193359,-0.929688,-0.540527,-60.099236,5.328244,-5.786260
-0.189697,-0.939697,-0.528809,-55.435116,3.000000,-0.374046
-0.170898,-0.950684,-0.490967,-49.145039,3.236641,4.450382
-0.168945,-0.949707,-0.514893,-49.679390,2.106870,8.167939
-0.148682,-0.920410,-0.567871,-51.221375,3.229008,11.038168
-0.099854,-0.911865,-0.559570,-49.244274,3.221374,11.374045
-0.087646,-0.904297,-0.580322,-49.717556,2.206107,9.160305
-0.054688,-0.897949,-0.580811,-52.183205,3.412214,7.030534
-0.030762,-0.891846,-0.592041,-54.847328,5.908397,4.816794
-0.043945,-0.892578,-0.612061,-56.755726,5.572519,1.862595
-0.033691,-0.886475,-0.635010,-59.320610,6.175572,-2.061069
-0.043701,-0.876709,-0.622803,-59.549618,8.557252,-4.587786
-0.082275,-0.891357,-0.610840,-56.183205,6.824428,-5.778626
-0.137939,-0.898682,-0.578613,-49.824429,2.534351,-5.274809
-0.154297,-0.927246,-0.567139,-43.366413,0.954198,-3.641221
-0.160645,-0.925049,-0.575439,-39.732826,1.679389,-0.763359
-0.158203,-0.906250,-0.598877,-36.183205,2.312977,2.198473
-0.165771,-0.882080,-0.637695,-33.450382,1.114504,3.229008
-0.149902,-0.867676,-0.657715,-32.053436,0.839695,4.465649
-0.140137,-0.850098,-0.680420,-35.450382,1.213740,5.175572
-0.116699,-0.845947,-0.682861,-36.648853,3.702290,4.572519
-0.151367,-0.878174,-0.673828,-30.198473,-3.954198,3.190840
-0.144043,-0.880615,-0.637939,-26.725191,-6.908397,2.496183
-0.120361,-0.887695,-0.634277,-25.648855,-6.167939,2.053435
-0.099609,-0.867188,-0.656494,-24.641222,-3.145038,2.366412
-0.132080,-0.878662,-0.659180,-23.603054,-7.496183,0.381679
-0.097656,-0.867432,-0.675293,-27.053434,-6.000000,0.091603
-0.100342,-0.877930,-0.663574,-28.847328,-3.015267,-0.175573
-0.110107,-0.856445,-0.670166,-27.832062,-2.534351,0.450382
-0.117432,-0.858154,-0.665039,-26.908398,-4.213740,0.442748
-0.111328,-0.862549,-0.666260,-28.343512,-4.145038,0.603053
-0.100830,-0.824951,-0.700439,-29.778625,-1.969466,0.389313
-0.125488,-0.839355,-0.676514,-28.580153,-4.961832,-0.992366
-0.122314,-0.831055,-0.707764,-32.236641,-4.496183,-0.290076
-0.125977,-0.813721,-0.729980,-35.343510,-0.893130,1.251908