acce_x,acce_y,acce_z,gyro_x,gyro_y,gyro_z
0.048340,-0.385498,0.801270,-6.053435,-4.763359,8.755725
0.025635,-0.356934,0.784668,-8.595420,-4.488550,4.259542
-0.029297,-0.354492,0.773682,-12.610687,-3.992366,4.206107
-0.074707,-0.344727,0.760010,-16.816793,-2.687023,6.839694
-0.083496,-0.353271,0.769043,-20.000000,-0.473282,10.519084
-0.064941,-0.359131,0.762939,-20.984734,2.290076,12.908397
-0.051758,-0.376709,0.797119,-19.274809,3.572519,13.908397
-0.064941,-0.388184,0.796387,-17.061069,0.267176,13.854961
-0.087158,-0.385986,0.806885,-14.152672,-3.656489,14.816793
-0.101807,-0.396729,0.790283,-11.343512,-7.114504,16.809160
-0.105713,-0.402100,0.800781,-8.343512,-9.083969,18.595419
-0.102295,-0.401367,0.795898,-6.244275,-9.564885,20.801527
-0.109131,-0.396973,0.805176,-5.496183,-9.305344,23.908398
-0.094238,-0.387207,0.797607,-6.832061,-9.809160,26.564886
-0.075928,-0.375977,0.762695,-9.343512,-9.251908,27.595419
-0.069580,-0.374756,0.767822,-13.396947,-8.244275,28.557251
-0.071289,-0.369141,0.749756,-16.664122,-7.015267,31.137405
-0.064941,-0.378906,0.750732,-17.916031,-5.931298,32.328243
-0.060547,-0.388672,0.760010,-18.839695,-5.206107,31.450382
-0.061768,-0.397705,0.773193,-19.633587,-8.053435,30.633587
-0.065430,-0.405762,0.773682,-18.656488,-10.984733,30.572519
-0.065186,-0.407715,0.794189,-17.839695,-13.938931,29.954199
-0.076904,-0.410400,0.812988,-18.022902,-16.366413,29.809160
-0.092041,-0.415039,0.810547,-18.832062,-18.549618,31.320610
-0.078613,-0.406494,0.786621,-19.099237,-16.045801,34.312977
-0.077393,-0.411865,0.788086,-18.381680,-14.625955,35.832062
-0.066895,-0.404785,0.793701,-17.152672,-12.473283,37.847328
-0.067383,-0.417236,0.795166,-16.122137,-9.900764,39.351147
-0.077881,-0.409668,0.793945,-15.557252,-10.167939,40.557251
-0.079590,-0.412598,0.793945,-15.908397,-12.786260,42.419846
-0.086914,-0.412598,0.792236,-16.458015,-14.366412,43.969467
-0.083496,-0.406250,0.786865,-15.442748,-15.618320,46.297710
-0.068604,-0.417725,0.790283,-10.809160,-15.816793,47.282444
-0.039062,-0.424072,0.796875,-4.801527,-15.473283,45.687023
0.000977,-0.418457,0.811768,0.198473,-16.847328,42.351147
0.002441,-0.410645,0.791992,3.000000,-18.877863,38.648853
0.001709,-0.404297,0.789307,3.671756,-18.893129,36.221375
-0.020020,-0.394531,0.800049,2.137405,-17.549618,36.351147
-0.035889,-0.381592,0.782715,1.030534,-13.625955,37.000000
-0.096191,-0.375244,0.793945,-1.358779,-11.610687,41.648853
-0.162109,-0.379150,0.774414,-4.427481,-11.419847,49.419846
-0.188232,-0.376465,0.750488,-6.267176,-11.908397,59.053436
-0.206787,-0.382324,0.713135,-8.419847,-14.801527,68.045799
-0.161621,-0.385498,0.701904,-12.557252,-20.603054,71.786263
-0.089355,-0.420166,0.766602,-13.206107,-28.122137,68.923668
-0.010254,-0.423096,0.784424,-11.236641,-27.412214,63.931297
0.033447,-0.422852,0.796631,-9.267176,-26.068703,56.625954
0.040771,-0.416748,0.824707,-7.946565,-26.167938,49.229008
0.037842,-0.415771,0.820068,-7.282443,-25.053434,42.824429
0.023193,-0.395020,0.814209,-7.450382,-22.687023,38.725189
0.004639,-0.391602,0.810059,-7.465649,-18.229008,37.450382
-0.026855,-0.388184,0.785889,-6.473282,-12.748092,39.190838
-0.050293,-0.395020,0.796631,-6.290076,-6.679389,43.770992
-0.065918,-0.403809,0.812012,-6.984733,-2.702290,47.770992
-0.082520,-0.403564,0.802002,-8.236641,-2.404580,51.450382
-0.108154,-0.412598,0.804199,-9.473283,-3.946565,55.496181
-0.137207,-0.430420,0.822998,-8.450381,-8.022901,59.641220
-0.127441,-0.431396,0.816162,-6.488550,-11.412213,62.083969
-0.115723,-0.427979,0.808838,-4.717557,-17.167938,60.938931
-0.087402,-0.420410,0.799316,-3.923664,-24.206106,56.595421
-0.033203,-0.402100,0.777588,-4.511450,-29.458015,50.244274
-0.016113,-0.388428,0.762451,-6.473282,-31.030535,45.587788
-0.012207,-0.376953,0.750244,-10.259542,-29.160305,42.931297
-0.038818,-0.370361,0.749023,-11.954199,-26.801527,43.748093
-0.052490,-0.377686,0.775635,-12.083969,-18.160305,48.000000
-0.089844,-0.384766,0.795410,-11.335877,-12.557252,53.442749
-0.122803,-0.400391,0.791016,-12.458015,-10.396947,58.931297
-0.152344,-0.399170,0.779541,-12.595420,-13.984733,64.435112
-0.176025,-0.416504,0.796631,-9.053435,-18.618320,68.709923
-0.156250,-0.435303,0.801514,-5.641222,-26.061069,69.832062
-0.148926,-0.440186,0.811768,-3.381679,-40.435116,67.061066
-0.090332,-0.439941,0.799561,1.534351,-47.519085,63.282444
0.000000,-0.412842,0.743164,6.442748,-47.061069,56.801525
0.054199,-0.388672,0.759766,4.961832,-45.259541,48.106869
0.065186,-0.353760,0.709717,-2.786260,-40.770992,44.122139
0.039062,-0.350342,0.721191,-10.374045,-35.580154,43.633587
0.029541,-0.377197,0.761230,-13.900764,-26.053434,42.793892
-0.002197,-0.400146,0.825195,-14.679389,-18.030535,41.816795
-0.043457,-0.422119,0.845703,-13.450381,-13.404580,42.541985
-0.137451,-0.430176,0.850586,-11.755725,-13.526717,46.984734
-0.210938,-0.434082,0.826660,-7.519084,-20.977098,55.137405
-0.233887,-0.441406,0.808105,-5.274809,-29.679390,62.618320
-0.209717,-0.429199,0.755371,-3.099237,-35.870228,68.297707
-0.154297,-0.412598,0.710205,0.305344,-37.335876,70.267174
-0.064941,-0.383789,0.716797,0.083969,-35.839695,68.977097
-0.017334,-0.381836,0.732178,-2.603053,-34.992367,64.000000
0.028320,-0.383301,0.772461,-5.190840,-33.854961,55.893131
0.065186,-0.369873,0.801025,-5.473282,-31.167938,45.251907
0.047852,-0.376953,0.806396,-5.442748,-27.725191,38.969467
-0.007324,-0.391602,0.841797,-7.236641,-23.083969,37.893131
-0.079346,-0.400879,0.825684,-8.832061,-19.664122,41.809162
-0.151123,-0.405029,0.788818,-6.465649,-16.931297,52.526718
-0.157227,-0.410156,0.782959,-2.770992,-9.977099,63.435116
-0.128662,-0.412598,0.802734,0.007634,-2.282443,70.870232
-0.055664,-0.411133,0.828857,1.526718,4.091603,73.076332
-0.004639,-0.410889,0.863525,4.816794,9.832061,68.351143
0.030273,-0.407959,0.862793,9.618320,12.236641,58.335876
0.023438,-0.395996,0.851074,13.175572,6.496183,46.083969
0.006836,-0.361328,0.822510,12.679389,-2.557252,34.175571
-0.044434,-0.356934,0.790283,10.419847,-10.129771,27.809160
-0.079834,-0.355225,0.783447,9.824428,-14.503817,27.580153
-0.097656,-0.355469,0.795166,8.870229,-14.847328,29.618320
-0.118652,-0.373291,0.799072,8.022901,-9.938931,34.832062
-0.164062,-0.381592,0.787109,6.198473,-5.534351,45.465649
-0.195312,-0.393066,0.800293,7.595420,-3.564885,56.404579
-0.184570,-0.389893,0.815918,8.923664,-1.381679,63.152672
-0.127441,-0.390869,0.787598,10.854961,1.473282,67.038170
-0.086670,-0.358643,0.764160,13.610687,3.465649,65.442749
-0.024414,-0.333008,0.766602,12.366412,3.534351,57.328243
0.010498,-0.313721,0.755371,9.122137,3.450382,47.534351
-0.045166,-0.299072,0.788574,7.534351,-3.702290,34.358780
-0.020752,-0.304688,0.750977,7.305344,-4.320611,30.618320
-0.050049,-0.319824,0.759766,7.832061,-8.213740,28.641222
-0.125000,-0.355957,0.793213,7.343512,-13.809160,30.534351
-0.150146,-0.355713,0.793701,8.664123,-19.290077,33.832062
-0.180908,-0.364258,0.790527,11.221375,-23.305344,40.870228
-0.214111,-0.391846,0.829346,14.916031,-23.580153,51.519085
-0.219238,-0.403564,0.859375,18.702290,-24.488550,58.389313
-0.165039,-0.383545,0.881348,20.541985,-18.671755,65.145035
-0.100586,-0.364746,0.838867,23.206106,-13.267176,64.259544
-0.049316,-0.315674,0.770264,22.832062,-8.435115,59.190838
-0.021729,-0.291016,0.739258,19.694656,-4.625954,52.160305
-0.006104,-0.251953,0.708008,12.748092,-6.221374,42.931297
-0.026611,-0.250488,0.690430,5.709924,-11.091603,38.702290
-0.081543,-0.269775,0.716553,-1.030534,-18.145039,36.671757
-0.107910,-0.279541,0.730469,-4.442748,-26.404581,35.671757
-0.123535,-0.306152,0.772461,-7.122138,-31.977098,38.526718
-0.154053,-0.331299,0.786133,-8.832061,-35.503819,44.709923
-0.191650,-0.351562,0.817383,-9.709924,-34.664124,56.106869
-0.176025,-0.375488,0.854980,-5.778626,-29.816793,66.893127
-0.139648,-0.375244,0.897217,1.030534,-22.167938,72.824425
-0.075684,-0.354248,0.873291,5.534351,-12.610687,72.908394
-0.042969,-0.315186,0.830566,6.496183,-6.793893,68.893127
0.000732,-0.271240,0.762695,3.679389,-2.435115,61.175571
0.029541,-0.233887,0.719238,-1.687023,-1.854962,52.564884
0.004150,-0.229736,0.704834,-7.236641,-4.045802,45.320610
-0.015381,-0.231201,0.697998,-12.335877,-8.213740,40.458015
-0.057373,-0.247314,0.707764,-18.251909,-14.900764,36.503819
-0.087891,-0.257568,0.726074,-22.938931,-21.274809,36.267174
-0.098877,-0.296631,0.786621,-24.366413,-23.938931,37.656490
-0.079834,-0.306152,0.829590,-23.587786,-22.984734,38.297710
-0.055420,-0.308350,0.850830,-23.740458,-18.213741,37.427483
-0.050537,-0.304688,0.858398,-23.427481,-14.190840,35.709923
-0.077637,-0.316895,0.844971,-20.687023,-9.832061,35.389313
-0.100586,-0.316162,0.824219,-17.450382,-7.557252,36.633587
-0.112305,-0.298096,0.789307,-17.916031,-6.687023,37.007633
-0.098145,-0.282471,0.752441,-20.687023,-6.381680,39.122139
-0.093506,-0.279785,0.753418,-24.511450,-6.862596,38.458015
-0.054199,-0.275146,0.746582,-28.343512,-8.587787,33.572517
-0.036865,-0.269043,0.759766,-42.137405,-11.755725,26.977098
-0.060059,-0.333496,0.739014,-38.343510,-9.954199,26.961832
-0.097900,-0.333984,0.802246,-36.206108,-9.541985,29.374046
-0.117676,-0.330322,0.838867,-35.870228,-10.267176,29.305344
-0.112061,-0.348633,0.853516,-32.954197,-7.816794,29.526718
-0.139404,-0.371338,0.873535,-28.099237,-4.954198,31.106871
-0.141602,-0.369141,0.894775,-21.114504,-3.870229,33.335876
-0.135742,-0.364502,0.877197,-16.908398,-1.145038,36.305344
-0.122559,-0.364014,0.847900,-14.389313,0.076336,37.251907
-0.091309,-0.342041,0.820068,-14.816793,1.992366,39.450382
-0.034424,-0.330566,0.788086,-13.763359,3.946565,37.366413
-0.011475,-0.326416,0.774658,-14.992367,5.748092,32.511452
-0.018799,-0.329590,0.770508,-17.801527,5.656488,30.839695
-0.057129,-0.334961,0.763916,-19.404581,2.106870,29.000000
-0.079102,-0.346680,0.799316,-20.152672,-2.809160,27.541985
-0.124023,-0.351807,0.789307,-18.954199,-11.366412,26.274809
-0.125244,-0.369385,0.797607,-17.496183,-16.916031,25.740458
-0.173096,-0.401123,0.827393,-15.832061,-18.900763,30.206106
-0.204590,-0.398926,0.829102,-12.839695,-20.519083,37.496181
-0.182129,-0.398926,0.847412,-10.931297,-20.351145,41.763359
-0.135498,-0.396484,0.850342,-9.488549,-17.190840,43.984734
-0.089355,-0.380127,0.823975,-9.977099,-11.206107,45.679390
-0.044434,-0.355469,0.804443,-11.343512,-6.603054,42.198475
-0.038086,-0.354980,0.781982,-11.419847,-6.435114,36.183205
-0.065186,-0.344971,0.760742,-13.396947,-9.748092,32.206108
-0.089600,-0.331543,0.743652,-17.114504,-16.488550,30.473282
-0.091553,-0.329590,0.742676,-21.251909,-23.610687,27.290077
-0.101074,-0.341064,0.755371,-23.404581,-30.641222,24.198473
-0.119385,-0.378662,0.801270,-20.946566,-34.778625,22.885496
-0.108643,-0.401123,0.832275,-13.702291,-37.083969,23.534351
-0.073730,-0.406494,0.844238,-9.007633,-32.709923,25.381680
-0.058350,-0.406738,0.856201,-8.832061,-24.221375,30.229008
-0.035400,-0.390625,0.813477,-7.969466,-17.427481,32.839695
0.003418,-0.364258,0.788330,-7.801527,-10.358779,31.267176
0.010498,-0.351562,0.741211,-10.427481,-3.801527,28.977098
-0.041748,-0.352051,0.767334,-12.587787,-6.603054,25.839695
-0.050293,-0.336670,0.771729,-18.748091,-11.175572,19.389313
-0.021240,-0.389893,0.715820,-10.603053,-8.335877,17.175573
-0.056396,-0.304688,0.753418,-16.183207,-10.687023,13.625955
-0.136475,-0.332031,0.753906,-19.343512,-19.343512,11.977099
-0.139893,-0.368408,0.794189,-18.419847,-26.358778,10.473283
-0.142334,-0.370605,0.809326,-14.641221,-29.381680,9.236641
-0.119141,-0.369385,0.806396,-13.641221,-26.053434,12.961832
-0.130615,-0.384766,0.810059,-14.496183,-19.748091,21.595419
-0.132080,-0.404785,0.845703,-12.473283,-16.351145,26.954199
-0.067627,-0.397705,0.827637,-9.221375,-10.068703,27.526718
-0.047852,-0.386963,0.818359,-7.381680,-3.450382,27.809160
-0.058105,-0.380859,0.813232,-7.022901,-1.488550,29.358778
-0.080078,-0.380127,0.812988,-6.221374,-3.633588,27.503817
-0.086426,-0.374023,0.795898,-6.335878,-6.312977,25.007633
-0.102539,-0.376953,0.806641,-6.908397,-12.366412,22.312977
-0.140869,-0.389160,0.788818,-8.488549,-21.282442,20.137405
-0.127441,-0.368652,0.782959,-10.251908,-26.320610,20.702290
-0.120117,-0.402832,0.798096,-12.175572,-27.900763,22.396946
-0.099365,-0.394287,0.804443,-11.267176,-27.190840,24.000000
-0.072510,-0.386475,0.825195,-9.007633,-26.038168,25.061069
-0.039795,-0.384277,0.798584,-7.198473,-23.030535,25.778625
-0.009277,-0.378418,0.780518,-8.618320,-18.335878,27.419847
0.009521,-0.388428,0.800537,-10.801527,-13.900764,26.961832
0.032471,-0.390625,0.777344,-11.969465,-10.908397,24.106871
-0.015137,-0.403320,0.785400,-9.992367,-11.816793,19.862595
-0.063477,-0.420898,0.816406,-10.854961,-14.839695,21.961832
-0.094238,-0.413818,0.805420,-10.320611,-22.709923,20.748091
-0.080811,-0.398438,0.749268,-9.396947,-25.977098,18.633587
-0.108643,-0.400879,0.762451,-8.931297,-29.244274,19.770992
-0.140869,-0.403564,0.773193,-10.183207,-33.045803,23.152672
-0.129639,-0.397949,0.782715,-13.358779,-34.549618,24.343512
-0.084717,-0.417725,0.764404,-7.732824,-30.801527,27.312977
-0.023926,-0.409668,0.815918,-4.496183,-26.580153,25.954199
0.039551,-0.414307,0.815674,-1.038168,-21.427481,21.770992
0.041992,-0.419922,0.821289,0.366412,-20.000000,16.923664
0.010498,-0.409424,0.796875,-0.992366,-26.389313,11.496183
-0.002930,-0.390625,0.788330,-1.320611,-37.618320,2.427481
-0.017334,-0.351074,0.730469,-2.419847,-47.465649,-3.786260
-0.063721,-0.343994,0.705322,-7.351145,-54.274811,-4.839694
-0.129395,-0.345215,0.729736,-10.526717,-59.893131,-0.312977
-0.101562,-0.340332,0.698242,-11.045801,-56.015266,5.091603
-0.107666,-0.355225,0.716553,-9.931297,-53.480915,7.778626
-0.069336,-0.333984,0.674561,-13.412213,-44.778625,14.603053
-0.043701,-0.336670,0.677734,-17.183207,-39.045803,20.961832
-0.001953,-0.356689,0.707031,-19.870230,-37.641220,21.282442
0.055664,-0.370361,0.712891,-24.755726,-37.832062,18.595419
0.054199,-0.396973,0.743896,-31.282442,-40.167938,17.435114
0.066406,-0.418457,0.756592,-36.221375,-41.068703,20.297710
0.096924,-0.448975,0.803711,-35.564884,-39.931297,21.557251
0.107422,-0.478271,0.860596,-27.954199,-39.099236,19.549618
0.115723,-0.483398,0.852783,-19.534351,-34.351147,19.511450
0.109375,-0.472656,0.844482,-14.244275,-29.389313,20.755726
0.153076,-0.442139,0.815430,-15.335877,-20.603054,18.251909
0.146729,-0.445068,0.822510,-14.923664,-14.877863,16.229008
0.113525,-0.452148,0.826172,-10.061069,-14.022901,16.320610
0.118652,-0.442139,0.824463,-6.847328,-13.511451,13.755725
0.108154,-0.419189,0.806885,-6.763359,-14.114504,10.083969
0.099365,-0.420410,0.798096,-9.320611,-12.145039,10.786260
0.048828,-0.426514,0.805664,-9.541985,-12.610687,10.305344
0.009277,-0.428711,0.816162,-7.938931,-15.900764,9.419847
-0.012207,-0.412109,0.777588,-7.694656,-18.091602,9.442748
-0.042236,-0.401611,0.766602,-11.091603,-19.839695,11.740458
-0.064941,-0.413330,0.775879,-15.595420,-18.694656,16.374046
-0.031738,-0.407471,0.782715,-18.190840,-17.297710,20.320610
-0.005371,-0.416748,0.807129,-15.740458,-17.122137,21.160305
0.013672,-0.441650,0.816650,-7.251908,-20.877863,18.832062
0.039062,-0.452637,0.846924,-1.778626,-22.740458,19.190840
0.077148,-0.431641,0.826904,-1.931298,-21.923664,19.832062
0.150391,-0.430908,0.820801,-3.129771,-17.343512,15.519084
0.102051,-0.431152,0.820312,-1.893130,-21.190840,9.832061
0.055420,-0.461914,0.823486,1.908397,-27.244274,6.572519
0.048828,-0.456543,0.856445,5.488550,-30.709923,5.389313
0.084961,-0.435791,0.842529,8.015267,-27.137405,6.755725
0.073242,-0.425049,0.817871,8.641221,-23.305344,9.152672
0.047363,-0.426270,0.821777,10.366412,-22.893129,10.839695
0.036377,-0.441406,0.844482,15.580153,-24.038168,10.824428
0.063232,-0.431152,0.823242,18.030535,-21.671755,11.160305
0.059326,-0.420166,0.808350,17.427481,-20.809160,13.603053
0.086182,-0.424805,0.820068,19.458015,-20.244274,14.694656
0.103271,-0.438965,0.833496,24.916031,-20.854961,12.519084
0.130127,-0.442383,0.831543,23.717558,-13.793893,10.473283
0.100342,-0.372314,0.738037,22.206106,-20.061069,9.305344
0.101318,-0.365479,0.734131,21.312977,-19.000000,8.206107
0.134033,-0.364502,0.706299,17.068703,-10.954199,6.671756
0.032227,-0.345215,0.712646,11.679389,-23.389313,5.793893
0.071777,-0.342041,0.686768,8.045801,-18.198473,7.412214
0.009521,-0.385010,0.765625,10.389313,-25.129770,7.312977
0.020752,-0.398193,0.796631,16.061069,-25.824427,10.923664
0.036621,-0.407715,0.805420,18.755726,-24.587786,11.480916
0.072998,-0.401123,0.782715,16.786259,-18.366413,14.007633
0.067383,-0.388184,0.781494,14.816793,-16.603054,16.770992
0.098389,-0.382568,0.782471,13.969465,-13.946565,17.564886
0.134033,-0.373779,0.746094,12.007633,-10.633588,16.519083
0.088379,-0.390869,0.743652,9.854961,-13.458015,16.427481