acce_x,acce_y,acce_z,gyro_x,gyro_y,gyro_z
-0.024414,-0.334961,0.804199,-0.938931,2.137405,-2.793893
-0.016357,-0.333252,0.806396,-1.541985,3.022901,-2.587786
-0.013184,-0.334473,0.809326,-2.229008,4.633588,-2.793893
-0.020752,-0.343018,0.809082,-2.595420,5.221374,-2.862595
-0.028076,-0.342529,0.805908,-2.824427,5.145038,-2.885496
-0.026611,-0.331055,0.811523,-2.786260,4.610687,-2.641221
-0.032471,-0.340820,0.822021,-2.251908,3.984733,-2.732824
-0.025391,-0.339600,0.801270,-1.984733,3.320611,-2.725191
-0.028564,-0.341309,0.805420,-1.816794,2.908397,-2.862595
-0.026367,-0.327637,0.802002,-1.870229,2.908397,-2.564885
-0.027344,-0.321533,0.808350,-2.106870,4.091603,-2.053435
-0.025635,-0.320801,0.802002,-2.282443,4.748092,-1.450382
-0.024170,-0.323975,0.809082,-2.656489,5.572519,-0.969466
-0.019043,-0.319336,0.812744,-3.267176,5.839694,-0.572519
-0.013184,-0.323730,0.806885,-3.854962,5.801527,-1.106870
-0.010010,-0.326904,0.810791,-4.473282,6.053435,-1.389313
-0.008789,-0.322754,0.810303,-4.694656,6.000000,-2.015267
-0.010010,-0.330566,0.831787,-4.427481,5.984733,-2.381679
-0.024902,-0.328857,0.814453,-4.022901,6.045802,-2.022901
-0.029297,-0.331299,0.822998,-3.389313,6.221374,-1.717557
-0.047119,-0.337402,0.838135,-1.717557,5.564886,-1.984733
-0.033447,-0.325195,0.826660,-2.717557,5.335878,-1.770992
-0.019775,-0.327881,0.823486,-3.076336,7.534351,-1.206107
-0.033447,-0.345703,0.823975,-2.145038,7.190840,-1.137405
-0.037354,-0.342285,0.824463,-2.236641,8.427481,-0.351145
-0.043701,-0.347656,0.819336,-0.801527,8.595420,0.045802
-0.051025,-0.347168,0.818115,-0.725191,8.198473,0.404580
-0.056396,-0.340820,0.803711,-0.740458,7.717557,1.664122
-0.061035,-0.341553,0.802490,-1.038168,7.396946,2.847328
-0.071533,-0.340088,0.795166,-1.633588,7.083970,3.900763
-0.073730,-0.338379,0.798828,-2.122137,6.847328,5.412214
-0.073242,-0.342285,0.804443,-2.969466,7.297710,7.320611
-0.069580,-0.338135,0.778809,-3.809160,7.511450,8.511451
-0.070312,-0.334961,0.786377,-4.763359,6.389313,9.656488
-0.075439,-0.329346,0.782715,-6.618320,6.984733,11.847328
-0.088623,-0.322754,0.781982,-8.198473,7.030534,14.977099
-0.107422,-0.322754,0.770752,-8.786260,5.396946,18.641222
-0.132080,-0.334229,0.769775,-9.488549,2.236641,23.778625
-0.130127,-0.328613,0.781250,-9.816793,1.129771,29.145039
-0.121826,-0.334961,0.805176,-10.511451,1.045802,34.305344
-0.114258,-0.338379,0.800781,-10.587787,2.145038,38.572517
-0.106201,-0.350830,0.809814,-11.167939,2.175573,42.160305
-0.112061,-0.351807,0.809570,-12.106871,1.824427,45.343510
-0.085693,-0.353516,0.811523,-12.977099,3.267176,47.114502
-0.064941,-0.351562,0.826660,-13.671756,4.717557,46.633587
-0.059082,-0.353027,0.826660,-12.061069,1.206107,45.625954
-0.094727,-0.342285,0.796631,-10.732824,-5.977099,46.106869
-0.113770,-0.352051,0.788330,-10.282443,-12.961832,47.541985
-0.117188,-0.344482,0.791748,-9.106871,-19.358778,48.725189
-0.110840,-0.342773,0.803467,-8.679389,-24.488550,49.656490
-0.087402,-0.343506,0.812500,-7.656488,-26.213741,50.816795
-0.068848,-0.333740,0.810059,-7.938931,-25.152672,51.816795
-0.043213,-0.338867,0.810303,-8.625955,-21.152672,51.862595
-0.030762,-0.338135,0.788330,-9.641221,-16.572519,51.251907
-0.000488,-0.342773,0.793213,-9.419847,-9.687023,49.007633
0.010986,-0.346436,0.815918,-9.595420,-3.969466,47.305344
0.000488,-0.342529,0.806885,-10.297709,-0.145038,45.290077
-0.029541,-0.353027,0.805420,-9.389313,1.503817,43.664124
-0.041260,-0.359375,0.816650,-9.404580,1.725191,41.870228
-0.071533,-0.355225,0.812744,-8.221375,-0.793893,41.068703
-0.106689,-0.365479,0.815186,-6.938931,-6.984733,40.152672
-0.116943,-0.366699,0.809570,-5.351145,-12.564885,40.282444
-0.139893,-0.362061,0.794922,-3.786260,-18.900763,42.038166
-0.169434,-0.353760,0.775879,-2.885496,-24.038168,45.015266
-0.173828,-0.352539,0.781982,-3.251908,-28.083969,48.000000
-0.140137,-0.347412,0.733643,-5.404580,-27.954199,49.320610
-0.092285,-0.356689,0.770020,-7.152672,-25.610687,47.839695
-0.062256,-0.355469,0.794189,-8.160305,-24.511450,44.923664
-0.039551,-0.365234,0.837402,-7.122138,-16.854961,44.778625
-0.086426,-0.364014,0.830078,-6.748092,-13.221375,45.427483
-0.116211,-0.346680,0.823242,-8.000000,-11.221375,47.610687
-0.159424,-0.360107,0.821533,-8.755725,-10.381680,51.900764
-0.182373,-0.376221,0.820801,-8.152672,-13.809160,55.984734
-0.201172,-0.382080,0.818604,-7.145038,-20.358778,60.908398
-0.202881,-0.379150,0.802979,-6.755725,-27.687023,65.114502
-0.176758,-0.372559,0.777832,-7.679389,-35.839695,67.343513
-0.163086,-0.373047,0.764160,-8.251908,-41.656490,70.145035
-0.105469,-0.365967,0.750488,-7.541985,-42.748093,69.877861
-0.018799,-0.362061,0.752930,-8.190840,-41.488548,65.694656
0.013672,-0.338135,0.793457,-11.297709,-40.763359,60.580154
0.032715,-0.342041,0.799316,-11.251908,-36.160305,56.015266
0.053467,-0.333984,0.817139,-10.885496,-28.717558,51.923664
0.045166,-0.328613,0.801514,-13.198473,-23.748091,47.916031
0.014648,-0.331299,0.777832,-15.801527,-21.572519,45.755726
-0.041992,-0.338867,0.781494,-17.175573,-22.229008,46.114502
-0.065186,-0.346436,0.783691,-16.961832,-23.854961,49.572517
-0.107666,-0.352051,0.777588,-16.778625,-26.671755,53.083969
-0.116699,-0.353271,0.753906,-17.801527,-29.862595,57.648853
-0.117188,-0.369385,0.745605,-17.190840,-33.251907,62.175571
-0.075439,-0.369385,0.763916,-15.076336,-31.351145,64.290077
-0.030762,-0.365723,0.793213,-12.877863,-27.839695,64.572517
0.005371,-0.370605,0.817627,-10.908397,-22.114504,64.175575
0.044189,-0.369141,0.827148,-9.412213,-15.274809,59.740459
0.062988,-0.360352,0.863037,-9.038168,-11.923664,54.603054
0.062012,-0.360352,0.868408,-7.259542,-10.068703,49.549618
0.045898,-0.357910,0.869629,-4.664122,-7.160306,45.435116
-0.000732,-0.356934,0.831055,-2.091603,-9.389313,43.343510
-0.046143,-0.355713,0.778320,-1.954198,-13.687023,43.725189
-0.063477,-0.343994,0.750732,-3.961832,-17.763359,44.862595
-0.072021,-0.353027,0.732910,-4.473282,-20.580153,48.099236
-0.054199,-0.349365,0.750488,-4.045802,-19.190840,49.847328
-0.037842,-0.368408,0.770264,-3.389313,-15.236641,47.748093
-0.013672,-0.338867,0.811279,-4.618320,-10.793893,49.404579
-0.006348,-0.346680,0.830322,-3.549618,-5.320611,48.671757
-0.002930,-0.349365,0.849609,-2.870229,-1.770992,46.923664
-0.020508,-0.348389,0.849121,-1.839695,0.061069,45.557251
-0.022461,-0.350830,0.836914,-1.625954,0.832061,44.954197
-0.041992,-0.340088,0.820801,-1.305344,0.824427,43.305344
-0.054443,-0.347900,0.804199,-2.351145,-0.946565,41.839695
-0.068115,-0.334717,0.800781,-4.183206,-3.656489,41.320610
-0.090332,-0.333008,0.788818,-4.992366,-6.809160,42.465649
-0.105469,-0.340088,0.764893,-4.450382,-10.366412,43.511452
-0.102051,-0.336182,0.774170,-5.671756,-13.381680,44.832062
-0.102295,-0.325928,0.780029,-6.580153,-13.793893,46.343510
-0.090576,-0.343506,0.797363,-7.160306,-13.435115,46.793892
-0.087646,-0.334473,0.797119,-7.175572,-13.801527,46.862595
-0.075195,-0.334229,0.830566,-6.541985,-13.625955,46.862595
-0.048584,-0.333008,0.855225,-4.938931,-11.282443,45.961834
-0.053467,-0.336426,0.859131,-3.526718,-8.450381,46.190838
-0.056152,-0.339600,0.843018,-2.572519,-7.709924,47.122139
-0.062012,-0.343018,0.833984,-2.312977,-7.259542,44.862595
-0.067139,-0.311523,0.797852,-2.877863,-9.091603,46.908398
-0.061035,-0.334717,0.782471,-4.908397,-10.381680,46.625954
-0.068604,-0.338379,0.780762,-5.229008,-11.977099,46.190838
-0.080566,-0.337646,0.777100,-4.801527,-13.809160,45.435116
-0.070068,-0.338379,0.770264,-5.671756,-15.603053,44.946564
-0.078857,-0.349365,0.759521,-6.854962,-17.511450,44.534351
-0.080566,-0.331543,0.762695,-8.618320,-20.160305,44.809162
-0.084473,-0.347900,0.794189,-9.053435,-22.618320,43.175571
-0.069336,-0.335938,0.818359,-8.183207,-23.526718,40.679390
-0.059082,-0.333496,0.828613,-6.190840,-23.198473,37.862595
-0.064209,-0.338379,0.834473,-4.778626,-22.648855,36.671757
-0.066650,-0.331787,0.848877,-3.931298,-20.351145,38.282444
-0.064697,-0.336182,0.834473,-3.160305,-20.091602,38.229008
-0.056396,-0.335205,0.827881,-2.000000,-19.618320,37.412212
-0.052979,-0.333984,0.821045,-1.877863,-19.824427,36.801525
-0.066162,-0.341553,0.818115,-1.587786,-21.427481,35.725189
-0.082275,-0.333984,0.794922,-2.091603,-23.038168,36.465649
-0.075439,-0.330811,0.790039,-3.396947,-23.503817,36.343510
-0.067627,-0.329590,0.790283,-4.137404,-23.106871,35.183205
-0.060547,-0.331055,0.802490,-3.900763,-22.633587,34.519085
-0.057129,-0.333740,0.810791,-3.992366,-22.877863,33.839695
-0.038330,-0.324463,0.827637,-4.290076,-22.564886,31.656488
-0.027344,-0.323730,0.826660,-4.000000,-22.297710,29.083969
-0.023193,-0.328369,0.839844,-3.564885,-22.045801,28.763359
-0.033936,-0.323486,0.824951,-3.549618,-22.732824,29.244274
-0.062012,-0.329834,0.801270,-3.854962,-23.641222,30.519083
-0.068604,-0.330078,0.799805,-5.190840,-23.740458,34.381680
-0.068115,-0.331787,0.806396,-5.305344,-23.725191,36.519085
-0.062744,-0.327881,0.808350,-5.381680,-22.740458,37.419846
-0.068115,-0.330811,0.817383,-5.511450,-22.381680,38.923664
-0.052979,-0.329346,0.820557,-5.389313,-21.167938,39.412212
-0.065430,-0.329102,0.828857,-4.625954,-21.801527,39.290077
-0.073486,-0.333740,0.825195,-4.076336,-23.366413,39.412212
-0.072266,-0.325928,0.818604,-4.198473,-25.015266,39.404579
-0.060791,-0.324951,0.809326,-3.893130,-26.038168,39.259541
-0.056152,-0.327393,0.821533,-4.099236,-26.709923,38.763359
-0.049072,-0.320801,0.809326,-4.251908,-26.870230,39.221375
-0.040771,-0.317627,0.809326,-4.954198,-26.267176,39.809162
-0.037598,-0.318848,0.815674,-4.442748,-26.519083,39.541985
-0.023193,-0.321045,0.813721,-4.175572,-25.618320,39.450382
-0.029297,-0.314941,0.821777,-4.091603,-24.374046,38.740459
-0.031494,-0.313965,0.810059,-4.480916,-22.816793,38.839695
-0.029541,-0.320801,0.811768,-4.259542,-22.435114,38.083969
-0.039795,-0.323242,0.816895,-3.763359,-23.015266,38.305344
-0.040527,-0.322266,0.811768,-3.129771,-24.824427,38.503819
-0.051025,-0.320312,0.812500,-2.389313,-27.206106,38.709923
-0.052246,-0.318848,0.814697,-4.564886,-29.221375,38.267174
-0.033203,-0.333252,0.801025,-1.877863,-29.366413,37.702290
-0.058838,-0.322266,0.812012,-2.053435,-29.809160,37.412212
-0.047363,-0.307129,0.801270,-2.320611,-28.541985,37.793892
-0.036133,-0.315674,0.798584,-1.862595,-26.244274,37.870228
-0.028809,-0.309570,0.795654,-2.236641,-24.167938,38.236641
-0.037598,-0.309082,0.788086,-2.312977,-21.786259,38.801525
-0.039062,-0.307373,0.781006,-3.229008,-20.389313,39.923664
-0.030029,-0.311279,0.783203,-4.572519,-19.832062,41.290077
-0.027588,-0.314453,0.764160,-5.282443,-20.076336,40.587788
-0.010986,-0.309326,0.752930,-5.977099,-19.419847,41.755726
-0.025879,-0.312744,0.759521,-7.396946,-20.259542,41.847328
0.009277,-0.314697,0.770020,-9.267176,-19.396946,40.961834
0.025879,-0.321045,0.800781,-10.007633,-20.229008,38.488548
0.029785,-0.329102,0.803955,-9.763359,-21.709923,35.641220
0.026123,-0.325195,0.822754,-9.564885,-22.702290,34.381680
0.020752,-0.323242,0.825684,-9.396947,-22.954199,34.396946
0.020996,-0.329102,0.838379,-9.282443,-21.709923,34.381680
0.025879,-0.336426,0.834717,-9.122137,-19.824427,33.587788
0.033447,-0.333740,0.824463,-8.916031,-17.022902,33.595421
0.030029,-0.347168,0.821533,-8.015267,-14.549619,34.122139
0.027344,-0.340576,0.817383,-8.603053,-11.931297,34.786259
0.033691,-0.338867,0.817383,-8.778625,-12.870229,34.274811
0.033447,-0.335938,0.826660,-8.938931,-13.083969,34.114502
0.024170,-0.338135,0.818359,-9.335877,-13.381680,34.129772
-0.001953,-0.344238,0.811768,-6.709924,-13.885496,32.725189
0.049072,-0.342285,0.800537,-7.030534,-13.282443,31.083969
0.041504,-0.332031,0.827881,-7.587786,-12.923664,31.106871
0.033203,-0.332275,0.823486,-12.183207,-8.076336,25.358778
-0.101562,-0.351562,0.906006,-9.374045,-9.946565,29.572519
0.038086,-0.336670,0.812988,-8.587787,-11.259542,28.412214
0.054443,-0.333984,0.796387,-8.190840,-5.480916,25.893129
0.033203,-0.326416,0.801758,-8.328244,-3.916031,24.351145
0.018555,-0.340576,0.801758,-7.786260,-5.992366,23.633587
0.020752,-0.332031,0.787109,-8.167939,-9.312977,23.099237
0.016602,-0.338623,0.797363,-8.450381,-9.007633,22.465649
0.014648,-0.342773,0.803223,-7.549618,-10.641221,21.236641
0.018066,-0.337891,0.792725,-7.297710,-12.366412,19.961832
0.019287,-0.327881,0.791260,-9.190840,-12.480916,19.129770
0.018311,-0.337402,0.798828,-9.603053,-13.648855,18.045801
0.014893,-0.337891,0.783691,-9.679389,-11.732824,18.442749
0.002930,-0.341064,0.782471,-9.328244,-11.381680,19.244274
-0.001221,-0.338379,0.805176,-9.145039,-10.908397,20.671755
0.003418,-0.343018,0.800537,-7.954198,-12.022901,20.198473
0.017334,-0.339844,0.809814,-6.587786,-11.091603,19.343512
0.000732,-0.350586,0.805908,-5.488550,-12.167939,19.534351
-0.003174,-0.340576,0.797607,-5.839694,-11.221375,20.946566
-0.004639,-0.342285,0.799805,-6.290076,-12.725191,22.366413
-0.004150,-0.338867,0.785645,-7.083970,-12.473283,23.496183
-0.017090,-0.342773,0.794678,-6.633588,-15.435115,23.251909
-0.004639,-0.308838,0.746094,-9.442748,-14.389313,23.877863
-0.003662,-0.336670,0.792969,-9.885496,-15.938931,24.595419
0.011963,-0.343994,0.786133,-10.717557,-14.564885,24.458015
-0.009766,-0.343506,0.787109,-9.603053,-16.664122,25.137405
-0.006592,-0.349365,0.810059,-8.839695,-15.389313,26.717558
-0.000732,-0.343750,0.824951,-9.419847,-14.824428,26.114504
0.000000,-0.343018,0.803223,-8.282443,-15.854961,28.160305
0.010742,-0.349609,0.812012,-7.465649,-15.824428,28.442749
0.017090,-0.347168,0.802490,-7.045802,-15.786260,27.900763
0.016113,-0.349609,0.792725,-7.000000,-15.053435,27.038168
0.009521,-0.354492,0.792480,-7.809160,-16.076336,27.442749
0.011963,-0.353027,0.797607,-9.549619,-16.167938,28.190840
0.017822,-0.354980,0.787598,-10.694656,-18.702290,29.549618
0.012695,-0.361816,0.800537,-10.931297,-20.526718,30.374046
0.025879,-0.364502,0.805664,-12.305344,-10.969465,29.786259
0.027100,-0.355469,0.833252,-9.450381,-19.732824,29.236641
0.042480,-0.366211,0.835693,-9.488549,-19.717558,29.076336
0.044922,-0.373047,0.825928,-8.755725,-18.091602,28.954199
0.041016,-0.376953,0.841309,-7.198473,-17.854961,29.786259
0.049072,-0.369141,0.812744,-6.442748,-16.282442,29.931297
0.045898,-0.373535,0.835449,-6.297710,-16.709923,30.328245
0.060303,-0.370850,0.828613,-7.610687,-15.488549,31.343512
0.061523,-0.380859,0.823975,-7.183206,-14.938931,30.587786
0.052246,-0.375488,0.827637,-6.496183,-15.282443,30.137405
0.049561,-0.369141,0.821533,-7.687023,-16.778625,30.923664
0.031494,-0.377441,0.818359,-8.725191,-20.297710,31.335878
0.038086,-0.379395,0.813477,-9.511451,-20.412214,31.473282
0.042480,-0.370605,0.793213,-9.022901,-20.748091,32.427483
0.032471,-0.368408,0.802002,-8.412213,-22.038168,33.755726
0.027832,-0.366699,0.822266,-8.610687,-24.022902,33.893131
0.036377,-0.364502,0.821777,-7.572519,-24.305344,32.923664
0.043945,-0.365479,0.796387,-6.183206,-23.183207,32.748093
0.041748,-0.358887,0.803223,-5.213740,-22.328245,33.167938
0.004639,-0.391357,0.783936,-3.938931,-19.541985,34.083969
0.049805,-0.365479,0.809326,-3.854962,-22.030535,34.366413
0.075684,-0.357422,0.793945,-4.076336,-18.801527,30.786259
0.066895,-0.368652,0.802490,-3.824427,-18.603054,29.519083
0.053955,-0.351318,0.756836,-5.053435,-18.343512,30.572519
0.052979,-0.355957,0.756592,-8.618320,-19.114504,31.931297
0.046875,-0.357666,0.756104,-15.145039,-19.847328,33.694656
0.052246,-0.355713,0.748291,-21.816793,-22.389313,35.007633
0.069336,-0.360107,0.761230,-26.251909,-23.801527,34.366413
0.082764,-0.365234,0.766113,-28.045801,-24.137405,32.916031
0.094238,-0.378418,0.771973,-28.526718,-21.030535,30.603054
0.093018,-0.385254,0.782959,-28.763359,-20.923664,29.030535
0.022217,-0.398438,0.833740,-28.526718,-21.534351,29.343512
0.091553,-0.400635,0.783447,-27.221375,-17.343512,27.885496
0.076416,-0.410889,0.780518,-24.381680,-16.137405,26.969465
0.061279,-0.409912,0.775391,-20.419847,-18.335878,24.488550
0.052490,-0.418457,0.782471,-17.870230,-18.259542,23.427481
0.032227,-0.420410,0.791992,-15.786260,-18.984734,23.832062
0.020020,-0.419922,0.811523,-13.503817,-18.137405,25.000000
0.039307,-0.429932,0.809326,-11.129771,-17.816793,24.862595
0.028564,-0.423096,0.815674,-7.305344,-15.992367,26.274809
0.030762,-0.425781,0.832275,-5.290076,-15.854961,28.977098
0.040527,-0.425049,0.840576,-3.984733,-16.068703,28.549618
0.054932,-0.426758,0.815186,-1.305344,-17.412214,27.190840
0.063477,-0.420654,0.791260,0.931298,-15.450381,25.160305
0.048340,-0.408691,0.774170,-0.587786,-14.572519,26.206106
0.043213,-0.392334,0.783691,-5.694656,-16.442749,27.740458
0.072266,-0.401855,0.740967,-5.274809,-14.396947,27.022902
0.071533,-0.404053,0.731934,-6.038168,-16.030535,24.824427