acce_x,acce_y,acce_z,gyro_x,gyro_y,gyro_z
-0.078369,-0.222168,0.836182,-0.954198,0.374046,6.213740
-0.084717,-0.219727,0.838135,-1.625954,1.465649,8.496183
-0.089111,-0.212891,0.830566,-3.022901,2.351145,10.664123
-0.087891,-0.227783,0.834717,-4.038168,2.343511,12.541985
-0.085449,-0.223633,0.835449,-4.572519,2.633588,14.061069
-0.077148,-0.214111,0.851074,-4.748092,2.893130,15.717557
-0.075684,-0.228027,0.841064,-4.763359,2.106870,16.717558
-0.075684,-0.220703,0.845215,-4.900764,0.618321,17.022902
-0.065918,-0.216797,0.843506,-5.328244,-1.038168,16.839695
-0.065430,-0.223877,0.846924,-4.549618,-2.877863,15.954199
-0.063477,-0.224609,0.856201,-2.633588,-3.862595,14.961832
-0.052979,-0.226318,0.862793,-0.725191,-5.343512,14.175572
-0.065918,-0.220947,0.859375,0.312977,-6.687023,13.755725
-0.052246,-0.214844,0.823486,-0.137405,-6.587786,13.312977
-0.041016,-0.215576,0.820312,-1.603053,-5.519084,12.366412
-0.036377,-0.213379,0.805420,-2.900763,-4.206107,11.198473
-0.017334,-0.215332,0.813477,-3.106870,-2.893130,9.404580
-0.023682,-0.218994,0.833252,-2.656489,-1.549618,7.664122
-0.025146,-0.211182,0.827881,-2.519084,-0.854962,6.854962
-0.039062,-0.211914,0.826416,-3.183206,-1.099237,6.465649
-0.035156,-0.208984,0.822998,-4.297710,-0.938931,5.312977
-0.027588,-0.213135,0.825195,-4.671756,-0.496183,3.541985
-0.036133,-0.213623,0.833740,-4.572519,-0.419847,2.648855
-0.043701,-0.216553,0.855713,-3.656489,-0.221374,2.320611
-0.052002,-0.214844,0.841309,-3.183206,-0.732824,2.893130
-0.058838,-0.213135,0.835693,-2.793893,-0.702290,3.633588
-0.061279,-0.208008,0.838867,-2.885496,-1.091603,4.778626
-0.061523,-0.206543,0.830078,-3.152672,-0.839695,5.755725
-0.061035,-0.212646,0.828613,-3.839695,-0.900763,6.839694
-0.063477,-0.206543,0.826904,-4.213740,-1.167939,7.564886
-0.059082,-0.208252,0.833496,-3.946565,-0.175573,7.664122
-0.054199,-0.207764,0.847656,-3.389313,0.015267,8.473283
-0.061035,-0.221680,0.854004,-2.725191,-0.541985,8.450381
-0.065918,-0.221924,0.849365,-2.000000,-1.221374,9.450381
-0.073242,-0.221191,0.863037,-1.709924,-1.473282,10.030535
-0.073486,-0.220703,0.861816,-1.618321,-1.877863,11.167939
-0.082031,-0.220215,0.863281,-1.656489,-2.671756,12.221375
-0.071777,-0.211914,0.858887,-1.969466,-2.977099,13.702291
-0.070312,-0.215332,0.847412,-1.946565,-2.526718,15.068703
-0.074707,-0.208496,0.844482,-1.648855,-2.503817,16.427481
-0.073242,-0.209473,0.837402,-1.770992,-3.595420,18.145039
-0.072021,-0.206543,0.833496,-2.587786,-5.305344,19.473282
-0.069092,-0.201904,0.827881,-3.709924,-5.404580,20.931297
-0.073242,-0.207031,0.828613,-4.984733,-5.564886,21.763359
-0.065186,-0.206543,0.820068,-5.969466,-4.839694,23.167938
-0.070068,-0.211914,0.830811,-6.053435,-6.000000,24.007633
-0.069824,-0.217529,0.827881,-5.694656,-7.740458,23.709923
-0.070068,-0.214844,0.832764,-5.519084,-10.885496,25.213741
-0.068848,-0.218262,0.836182,-5.473282,-12.770992,25.167938
-0.051270,-0.221924,0.828125,-5.534351,-12.290076,25.778625
-0.052490,-0.214600,0.829346,-4.954198,-12.816793,25.015266
-0.047119,-0.216309,0.831543,-3.923664,-12.946565,25.061069
-0.062012,-0.219971,0.840088,-3.961832,-14.297709,25.183207
-0.067139,-0.223633,0.816406,-4.000000,-16.480917,26.114504
-0.077393,-0.217773,0.815918,-5.061069,-19.335878,26.847328
-0.075684,-0.214355,0.818115,-7.022901,-21.190840,29.221375
-0.066406,-0.206299,0.813477,-9.946565,-21.786259,29.748091
-0.061768,-0.208252,0.803223,-12.412213,-22.259542,30.419847
-0.087646,-0.214600,0.791748,-14.435115,-24.778625,33.793892
-0.100098,-0.220947,0.820801,-14.977099,-25.984734,38.297710
-0.102295,-0.229004,0.812744,-13.282443,-26.816793,42.656490
-0.119141,-0.234131,0.809814,-11.488549,-31.526718,46.770992
-0.102539,-0.242676,0.822754,-10.137404,-36.244274,51.473282
-0.031982,-0.247559,0.843506,-8.251908,-34.969467,49.641220
0.010986,-0.240723,0.876709,-6.755725,-32.381680,47.603054
0.011230,-0.250488,0.899414,-5.076336,-29.908398,45.183205
0.023682,-0.238525,0.895752,-3.389313,-28.664122,42.381680
0.017578,-0.227295,0.885986,-1.519084,-25.335878,42.717556
0.000488,-0.223389,0.887939,-1.694656,-24.702290,43.885498
-0.026611,-0.224609,0.851562,-2.366412,-25.580153,44.709923
-0.038574,-0.212646,0.814697,-4.282443,-25.862595,47.374046
-0.063965,-0.196533,0.783447,-7.290076,-29.076336,53.152672
-0.071533,-0.202148,0.777344,-11.312977,-30.961832,59.045803
-0.053467,-0.195312,0.764648,-16.305344,-31.931297,63.465649
-0.044922,-0.210449,0.748535,-21.229008,-33.717556,66.076332
-0.021973,-0.208008,0.739258,-25.183207,-37.351147,67.473282
0.013428,-0.207764,0.736084,-27.312977,-41.221375,67.122139
0.077637,-0.242676,0.783203,-25.648855,-40.847328,61.748093
0.104980,-0.241943,0.827148,-23.442749,-42.137405,55.656490
0.101807,-0.256104,0.886475,-18.755726,-42.045803,51.503819
0.085938,-0.257324,0.885010,-14.435115,-41.694656,48.977100
0.054443,-0.252686,0.886963,-12.847328,-42.297710,49.648853
0.022705,-0.248779,0.848389,-12.717557,-42.251907,53.152672
-0.001221,-0.251709,0.852051,-14.572519,-40.396946,58.312977
-0.050293,-0.255127,0.824707,-17.404581,-39.740459,63.687023
-0.068115,-0.251221,0.790771,-19.977098,-41.099236,71.595421
-0.044434,-0.275391,0.765137,-18.801527,-40.099236,77.343513
-0.039307,-0.260010,0.784912,-19.755726,-42.702290,84.122139
-0.010742,-0.270508,0.745117,-21.725191,-46.801525,90.152672
0.063477,-0.254639,0.763916,-25.679390,-48.938931,90.832062
0.146973,-0.271240,0.758057,-27.007633,-42.427483,85.534348
0.195068,-0.255859,0.814453,-30.381680,-35.778625,77.519081
0.256592,-0.263672,0.842041,-29.458015,-23.274809,67.641220
0.253174,-0.269287,0.916748,-26.114504,-12.007633,57.725189
0.208008,-0.274658,0.943359,-20.374046,-5.335878,50.541985
0.147705,-0.281250,0.955078,-14.961832,-4.412214,48.213741
0.073486,-0.286621,0.933105,-9.763359,-8.305344,49.183205
0.031250,-0.286865,0.899902,-7.290076,-12.366412,53.450382
-0.007080,-0.292725,0.846680,-6.809160,-15.328244,59.106869
0.003418,-0.285156,0.817627,-9.366412,-12.946565,66.122139
0.034180,-0.282471,0.808594,-13.717557,-6.053435,68.290077
0.076416,-0.297607,0.805420,-17.328245,2.244275,67.404579
0.093994,-0.281250,0.813477,-21.809160,9.503817,65.358780
0.126953,-0.276123,0.830078,-23.473282,17.038168,60.328243
0.149658,-0.282471,0.851807,-22.175573,20.969465,51.587788
0.125732,-0.288574,0.879395,-19.267176,19.167938,44.786259
0.075928,-0.295166,0.906250,-14.977099,12.931297,39.877861
0.056396,-0.292725,0.894775,-10.114504,4.335878,37.274811
0.016602,-0.308838,0.868408,-5.480916,-5.114504,36.778625
-0.013184,-0.295898,0.858643,-2.717557,-12.854961,38.343510
-0.022461,-0.302734,0.830078,-1.541985,-15.946565,42.809162
-0.019043,-0.295898,0.835693,-2.671756,-15.106871,46.381680
0.013672,-0.281982,0.813721,-5.000000,-8.908397,48.374046
0.043213,-0.276611,0.809570,-8.335877,-0.022901,49.061069
0.052490,-0.278809,0.806396,-10.396947,9.396947,48.877861
0.036377,-0.280273,0.820312,-11.961832,14.282443,48.969467
0.039062,-0.288330,0.831055,-11.603053,16.633587,47.053436
0.016113,-0.298340,0.830566,-10.419847,15.671756,45.389313
0.005615,-0.286865,0.841553,-9.526717,9.839695,44.442749
-0.007080,-0.292480,0.839600,-6.778626,4.229008,44.801525
-0.010498,-0.300293,0.835205,-4.923664,1.320611,45.946564
-0.002197,-0.289551,0.852783,-4.213740,-1.832061,45.129772
-0.004639,-0.298828,0.841553,-3.427481,-4.732824,43.801525
-0.004150,-0.290283,0.824219,-3.389313,-5.969466,44.099236
-0.010254,-0.286377,0.818115,-4.374046,-6.992366,44.389313
-0.010742,-0.291504,0.814453,-4.717557,-6.343512,44.587788
-0.026123,-0.292969,0.823486,-4.854962,-6.656488,45.938931
-0.038818,-0.293945,0.837646,-4.931298,-6.694656,48.022900
-0.036133,-0.289062,0.832275,-4.778626,-6.603054,51.221375
-0.018311,-0.277588,0.843018,-5.984733,-7.946565,52.267174
0.012695,-0.287354,0.849609,-6.839694,-6.534351,51.366413
0.025635,-0.283447,0.856689,-6.633588,-4.793893,48.946564
0.030273,-0.299805,0.864258,-5.404580,-3.740458,45.374046
0.021973,-0.293701,0.847656,-4.244275,-4.748092,42.854961
-0.000244,-0.286865,0.831299,-3.610687,-6.595420,41.549618
0.006104,-0.288574,0.835693,-4.061069,-8.770992,40.893131
0.009277,-0.285400,0.820801,-3.679389,-9.229008,40.129772
0.006592,-0.290527,0.802490,-3.541985,-9.770992,40.206108
-0.003906,-0.300781,0.810547,-4.083970,-10.480916,40.213741
0.006348,-0.288574,0.822510,-5.045802,-10.175572,39.778625
0.009277,-0.295898,0.823975,-5.549618,-9.358779,39.068703
0.004150,-0.291748,0.801025,-6.167939,-7.900764,38.923664
-0.005615,-0.287109,0.805908,-7.312977,-8.603053,38.931297
0.018066,-0.284424,0.781982,-7.725191,-7.076336,38.938931
-0.007568,-0.286865,0.817139,-7.511450,-11.091603,37.885498
0.010986,-0.293213,0.816650,-7.106870,-11.053435,37.396946
0.001221,-0.296387,0.819824,-7.213740,-11.167939,35.885498
-0.023438,-0.248535,0.747803,-6.000000,-11.740458,36.854961
-0.044678,-0.273438,0.806152,-8.122137,-13.259542,39.022900
-0.005615,-0.302734,0.780273,-8.725191,-12.160305,40.015266
-0.008301,-0.298340,0.786621,-9.847328,-10.526717,40.496181
-0.005371,-0.296631,0.789551,-11.244275,-8.625955,41.793892
0.005127,-0.293945,0.812988,-11.312977,-7.770992,41.748093
0.015625,-0.301758,0.827393,-9.770992,-7.603054,39.969467
0.035645,-0.302246,0.839600,-8.274809,-6.908397,36.152672
0.023438,-0.302246,0.832031,-6.755725,-7.167939,33.099236
0.016113,-0.305908,0.838623,-6.274809,-8.557252,30.770992
0.013916,-0.307861,0.805176,-7.694656,-8.656488,29.030535
-0.019775,-0.297607,0.816162,-7.824428,-14.190840,29.389313
-0.005127,-0.311035,0.785889,-9.175572,12.984733,26.129770
-0.119873,-0.252441,0.881592,-11.122137,-18.152672,32.595421
-0.008057,-0.320801,0.772705,-9.839695,-15.114504,31.969465
0.003418,-0.304688,0.798340,-10.419847,-12.175572,31.687023
-0.006348,-0.299316,0.814697,-11.435115,-13.137404,32.458015
-0.006836,-0.306152,0.818604,-12.465649,-12.145039,32.908398
-0.003906,-0.309814,0.839111,-12.778625,-13.427481,33.259541
0.008789,-0.313721,0.835449,-12.198473,-13.312977,32.671757
-0.001465,-0.314941,0.846191,-11.717557,-15.137404,32.732826
0.007568,-0.296875,0.840088,-8.557252,-1.045802,29.671755
-0.052002,-0.291504,0.906250,-9.244275,-19.335878,31.198473
0.032715,-0.325439,0.832764,-7.053435,-16.595419,28.389313
0.013428,-0.315674,0.863770,-5.893130,-16.557251,26.732824
-0.005371,-0.320068,0.831299,-5.572519,-17.091602,27.671755
0.005371,-0.304932,0.842773,-6.816794,-18.328245,28.969465
0.017334,-0.307129,0.830811,-7.877862,-17.068703,28.267176
0.021484,-0.310303,0.832520,-8.679389,-16.587786,27.832062
0.018311,-0.304932,0.853271,-8.534351,-15.221375,28.015266
0.011475,-0.313965,0.843262,-7.847328,-15.435115,28.099237
0.007568,-0.320068,0.840332,-7.122138,-15.847328,27.709923
-0.002197,-0.318115,0.824219,-6.809160,-16.679390,28.175573
-0.016602,-0.307129,0.819580,-6.992366,-18.244274,29.893129
-0.018066,-0.304443,0.809570,-7.702290,-19.885496,31.183207
-0.008789,-0.309082,0.808838,-10.183207,-18.694656,30.877863
0.004639,-0.318848,0.797363,-9.511451,-20.541985,32.229008
-0.008545,-0.314697,0.801025,-8.610687,-20.900763,32.740459
0.000977,-0.312988,0.820312,-7.702290,-21.854961,33.274811
0.007324,-0.315186,0.802490,-6.664122,-22.221375,32.885498
0.031494,-0.308838,0.797119,-7.687023,-21.290077,33.053436
0.039551,-0.305664,0.791748,-8.618320,-20.297710,32.557251
0.039062,-0.300049,0.790039,-9.648855,-18.236641,32.335876
0.050781,-0.308594,0.783691,-10.923664,-15.854961,32.290077
0.047852,-0.312012,0.779541,-11.618320,-14.763359,31.267176
0.057129,-0.316895,0.777588,-11.671756,-13.427481,30.778625
0.050781,-0.324707,0.801270,-10.916031,-13.473283,30.557251
0.057861,-0.326660,0.807617,-11.427481,-15.053435,30.717558
0.067139,-0.338379,0.822021,-12.190840,-15.045801,29.412214
0.079590,-0.342773,0.820557,-12.198473,-14.129771,28.007633
0.064697,-0.342285,0.824707,-11.328244,-14.770992,26.610687
0.052002,-0.345215,0.828369,-9.167939,-14.839695,25.610687
0.051025,-0.343262,0.841553,-7.404580,-14.519084,24.938931
0.062500,-0.354004,0.842529,-5.732824,-13.381680,24.106871
0.041260,-0.352539,0.845947,-4.190840,-13.106871,24.152672
0.004395,-0.358643,0.838623,-3.030534,-11.442748,28.389313
0.000732,-0.329346,0.851807,-6.145038,-11.847328,33.748093
0.014160,-0.338623,0.828369,-7.290076,-9.564885,33.969467
0.021729,-0.338623,0.814941,-7.099236,-7.465649,33.557251
-0.007080,-0.292969,0.767578,-4.938931,-8.030535,33.854961
-0.010986,-0.313477,0.822754,-4.587786,-8.427481,31.618320
0.007324,-0.343994,0.813721,-4.007634,-11.190840,30.152672
0.001465,-0.336182,0.818848,-7.312977,-13.312977,29.534351
0.007324,-0.359375,0.803223,-7.183206,-16.694656,31.824427
0.003174,-0.331543,0.819580,-7.511450,-17.755726,32.854961
0.029053,-0.334961,0.814697,-7.282443,-16.290077,32.419846
0.036377,-0.329834,0.817139,-6.885496,-13.656488,32.190838
0.031250,-0.332275,0.807861,-6.450382,-11.625955,33.366413
0.034668,-0.337158,0.814209,-6.946565,-10.541985,34.267174
0.030029,-0.340820,0.814453,-7.656488,-10.122137,35.328243
0.030029,-0.332520,0.818115,-8.625955,-8.557252,36.900764
0.031738,-0.360596,0.868408,-6.839694,-11.389313,35.610687
0.042725,-0.358154,0.813721,-4.419847,-10.480916,33.526718
0.023926,-0.342041,0.820801,-2.793893,-11.351145,32.725189
0.032227,-0.337158,0.824219,-2.854962,-17.282442,31.877863
0.034668,-0.332275,0.809570,-4.496183,-21.702290,30.427481
0.044678,-0.324463,0.786133,-6.900764,-23.786259,29.381680
0.066895,-0.324707,0.789307,-9.335877,-24.099237,28.587786
0.064453,-0.327881,0.770020,-10.190840,-23.045801,27.290077
0.066406,-0.333008,0.792969,-10.610687,-22.923664,26.511450
0.061768,-0.345215,0.774414,-9.496183,-21.167938,25.770992
0.059082,-0.332764,0.774170,-10.618320,-18.885496,28.854961
0.054932,-0.335205,0.784668,-13.022901,-17.381680,30.320610
0.071533,-0.357910,0.786865,-13.824428,-16.793894,30.641222
0.073975,-0.354980,0.800293,-14.045801,-15.671756,29.709923
0.077148,-0.374756,0.801270,-14.335877,-13.053435,29.595419
0.067383,-0.394043,0.828857,-13.702291,-16.847328,28.847328
0.067627,-0.378906,0.813721,-15.679389,-19.305344,28.961832
0.054443,-0.382812,0.824707,-16.030535,-24.083969,29.206106
0.081787,-0.385742,0.814453,-15.435115,-26.671755,28.114504
0.080078,-0.376953,0.811768,-16.938931,-27.732824,29.175573
0.075684,-0.386963,0.823242,-17.274809,-26.839695,30.137405
0.085449,-0.381836,0.821289,-17.412214,-23.862595,30.427481
0.073486,-0.377930,0.828125,-16.183207,-22.267176,28.786259
0.065430,-0.390625,0.837646,-12.824428,-21.259542,27.862595
0.057373,-0.375488,0.832275,-11.893129,-21.114504,30.015266
0.043701,-0.376709,0.818115,-11.725191,-18.938931,32.358780
0.037354,-0.364502,0.834229,-11.732824,-17.267176,34.183205
0.051758,-0.366455,0.808105,-10.870229,-14.129771,33.755726
0.051514,-0.368896,0.809814,-10.030535,-12.488549,32.213741
0.024170,-0.357910,0.815918,-10.603053,-13.763359,33.938931
0.006836,-0.361084,0.825928,-10.427481,-18.000000,33.503819
0.021973,-0.345703,0.803223,-10.450381,-20.053434,32.694656
0.039795,-0.349609,0.786865,-12.358779,-22.007633,30.641222
0.045166,-0.336426,0.763428,-17.458015,-20.839695,32.603054
0.031738,-0.380127,0.793457,-17.610687,-20.709923,32.908398
0.051270,-0.344238,0.720215,-19.946566,-17.412214,35.526718
0.051514,-0.348633,0.772217,-22.480917,-16.312977,35.541985
0.049316,-0.360107,0.768311,-24.320610,-16.366413,36.480915
0.018066,-0.367188,0.785156,-24.335878,-20.625954,37.648853
0.048584,-0.377930,0.788574,-22.274809,-21.488550,37.793892
0.053223,-0.389893,0.792725,-20.061069,-21.526718,35.770992
0.054932,-0.390869,0.800781,-18.480917,-21.656488,34.862595
0.064941,-0.398682,0.815918,-18.129770,-23.549618,33.076336
0.053955,-0.397949,0.807617,-18.320610,-24.938931,33.068703
0.078613,-0.398438,0.796143,-18.267176,-23.251909,32.465649
0.089111,-0.391113,0.755615,-18.992367,-17.412214,33.435116
0.086914,-0.376953,0.765869,-21.022902,-14.877863,32.931297
0.091797,-0.375732,0.756104,-23.725191,-10.435115,31.603054
0.063232,-0.388184,0.741699,-22.854961,-6.679389,29.511450
0.053223,-0.368408,0.766113,-22.328245,-6.488550,30.709923
0.056396,-0.379395,0.764404,-22.320610,-8.030535,29.870230
0.095947,-0.377197,0.759277,-24.725191,-3.297710,26.717558
0.107178,-0.432617,0.741455,-19.847328,2.763359,23.648855
0.093018,-0.384766,0.781006,-18.625954,-6.175572,15.839695
0.090088,-0.407959,0.739990,-18.763359,-6.984733,13.534351
0.059570,-0.433105,0.748047,-21.328245,-13.435115,15.007633
0.024170,-0.419922,0.786621,-29.335878,-20.496183,20.473282
0.056152,-0.439453,0.772949,-32.290077,-19.679390,22.404581
0.095459,-0.454590,0.790771,-31.977098,-15.038168,22.648855
0.323730,-0.451904,0.620605,-25.732824,-16.312977,23.022902
0.105469,-0.458252,0.843262,-24.022902,-12.557252,21.267176