acce_x,acce_y,acce_z,gyro_x,gyro_y,gyro_z
0.625244,-0.097900,0.675537,-1.076336,-0.740458,-0.129771
0.609619,-0.099365,0.681641,0.091603,-2.061069,1.923664
0.601318,-0.101562,0.684082,1.053435,-3.885496,3.671756
0.610352,-0.114746,0.690186,2.862595,-5.526718,5.969466
0.624023,-0.104736,0.687256,4.320611,-5.328244,8.458015
0.636719,-0.106445,0.690674,4.984733,-3.351145,10.106871
0.645752,-0.099609,0.676758,5.427481,-2.961832,11.122137
0.664795,-0.055420,0.642822,4.816794,0.954198,12.351145
0.661133,-0.106201,0.680420,3.244275,4.251908,13.083969
0.641602,-0.110840,0.644043,3.832061,2.206107,13.053435
0.644531,-0.093018,0.657715,2.099237,2.083969,13.213740
0.641602,-0.093750,0.656006,1.435115,-0.290076,13.190840
0.643555,-0.091064,0.664307,1.595420,-1.755725,12.923664
0.648438,-0.096924,0.674316,2.541985,-3.312977,12.160305
0.649414,-0.097168,0.675781,3.221374,-3.389313,12.099236
0.645752,-0.090576,0.687012,3.167939,-2.274809,13.122137
0.640381,-0.087646,0.682617,3.206107,-1.198473,14.465649
0.644287,-0.089355,0.689209,3.030534,-0.877863,15.305344
0.642578,-0.090088,0.678711,3.160305,-1.190840,15.465649
0.648438,-0.094727,0.674316,3.900763,-0.694656,15.755725
0.650146,-0.091309,0.680664,4.977099,-1.511450,15.328244
0.656006,-0.088379,0.682373,5.687023,-2.343511,14.442748
0.652832,-0.092041,0.677246,5.862596,-2.587786,13.916031
0.643311,-0.089111,0.683838,5.793893,-4.580153,13.221375
0.642090,-0.089355,0.670410,6.351145,-5.076336,12.908397
0.637939,-0.087402,0.685059,5.603054,-5.236641,13.335877
0.626465,-0.086670,0.680664,5.167939,-5.885496,14.335877
0.627441,-0.082764,0.682861,4.862596,-5.778626,15.877863
0.615967,-0.081299,0.678223,4.198473,-6.061069,17.145039
0.611816,-0.072754,0.675781,2.458015,-5.656488,18.557251
0.609863,-0.081543,0.668213,2.366412,-5.129771,21.450382
0.610596,-0.085693,0.684082,2.969466,-3.198473,24.053434
0.610596,-0.080811,0.678711,3.496183,-1.496183,26.442749
0.600830,-0.082764,0.675293,4.122138,-4.167939,27.343512
0.607422,-0.083740,0.674561,5.740458,-7.488550,26.671755
0.604736,-0.090332,0.669434,7.496183,-11.480916,26.267176
0.601807,-0.080566,0.677734,7.656488,-14.572519,26.198473
0.585938,-0.069824,0.669434,6.061069,-20.206106,24.656488
0.596924,-0.074707,0.655273,5.816794,-17.717558,28.061069
0.596924,-0.067627,0.659424,5.229008,-15.503817,31.305344
0.590576,-0.066650,0.656982,3.358779,-16.419847,32.702290
0.586914,-0.068359,0.660156,2.786260,-13.954199,36.244274
0.610352,-0.065430,0.646729,1.473282,-8.312977,39.351147
0.608643,-0.069824,0.657959,1.175573,-10.923664,39.053436
0.625000,-0.072754,0.667725,0.748092,-13.938931,37.564884
0.633789,-0.076904,0.662598,0.572519,-15.519084,35.259541
0.635742,-0.085205,0.685791,0.824427,-17.603054,31.648855
0.649658,-0.081543,0.678711,2.389313,-15.862596,31.480917
0.640137,-0.074951,0.687988,2.709924,-16.435114,29.664122
0.648193,-0.069580,0.684570,1.938931,-15.175572,28.641222
0.646484,-0.072998,0.678955,0.977099,-12.862596,28.351145
0.636719,-0.064453,0.673584,-1.435115,-9.748092,29.083969
0.628418,-0.068848,0.663574,-3.312977,-8.694656,29.267176
0.623779,-0.061035,0.656494,-4.748092,-8.442748,29.167938
0.618896,-0.059814,0.650146,-6.755725,-8.190840,29.465649
0.613037,-0.064209,0.645020,-6.564886,-10.152672,28.648855
0.631592,-0.063232,0.668213,-5.061069,-11.687023,26.572519
0.650635,-0.073730,0.683838,-3.854962,-12.702291,22.709923
0.668457,-0.073730,0.692383,-3.526718,-12.961832,18.961832
0.664307,-0.074951,0.691162,-1.458015,-12.748092,15.992367
0.670410,-0.078613,0.698486,0.610687,-10.595420,13.832061
0.664307,-0.076172,0.710938,0.671756,-8.000000,12.465649
0.656494,-0.073730,0.701416,0.114504,-5.267176,11.496183
0.636475,-0.062256,0.692627,-0.656489,-3.656489,11.053435
0.612305,-0.072998,0.686768,-1.694656,-4.137404,11.847328
0.582764,-0.070312,0.696533,-2.114504,-5.694656,14.053435
0.571777,-0.075684,0.702881,-2.793893,-6.206107,17.007633
0.576904,-0.081055,0.702393,-3.190840,-6.007634,19.190840
0.570312,-0.080811,0.715088,-2.282443,-8.152672,21.083969
0.578369,-0.088867,0.721191,-0.793893,-10.007633,22.312977
0.575195,-0.082520,0.705078,-1.145038,-10.977099,23.740458
0.569824,-0.081543,0.705566,-1.450382,-14.572519,24.381680
0.560547,-0.078613,0.685547,-1.221374,-16.709923,25.465649
0.562988,-0.079834,0.692139,-3.267176,-19.076336,22.954199
0.578369,-0.075195,0.675293,-2.679389,-17.496183,27.519083
0.595703,-0.075928,0.679443,-3.396947,-14.778625,29.076336
0.607422,-0.081055,0.693848,-3.221374,-12.320611,29.343512
0.611816,-0.072510,0.686035,-3.801527,-10.702291,28.931297
0.604736,-0.074219,0.675537,-5.022901,-9.381680,29.610687
0.597412,-0.066650,0.660645,-7.190840,-9.687023,30.137405
0.580322,-0.061523,0.657471,-9.259542,-9.908397,30.473282
0.581787,-0.068604,0.648682,-12.763359,-10.244275,31.404581
0.589600,-0.063965,0.665771,-13.083969,-11.152672,31.076336
0.598389,-0.087891,0.677734,-9.427481,-11.610687,29.068703
0.609863,-0.084717,0.694824,-5.297710,-10.862596,27.213741
0.612061,-0.076904,0.693115,-4.312977,-11.938931,25.206106
0.613525,-0.073486,0.675781,-3.244275,-12.458015,24.801527
0.624756,-0.076416,0.701904,-3.229008,-12.030535,24.061069
0.620850,-0.073242,0.685303,-3.229008,-9.442748,23.374046
0.613037,-0.075928,0.702393,-2.030534,-8.335877,23.290077
0.611572,-0.071045,0.676514,-1.335878,-4.343512,23.374046
0.599121,-0.072754,0.684570,-1.625954,-1.740458,23.572519
0.580322,-0.069824,0.679688,-2.793893,-0.923664,24.648855
0.561523,-0.071045,0.666992,-3.351145,-2.045802,26.091602
0.549072,-0.077881,0.664551,-3.809160,-3.229008,27.099237
0.526123,-0.068115,0.672852,-4.213740,-7.251908,28.946566
0.526123,-0.076416,0.665039,-3.541985,-9.541985,31.351145
0.529053,-0.070312,0.657715,-3.412214,-8.984733,34.938931
0.536865,-0.071289,0.670166,-5.381680,-6.290076,38.305344
0.539062,-0.077393,0.667725,-4.503817,-3.816794,40.732826
0.543701,-0.089600,0.667236,-0.557252,-3.404580,41.641220
0.539795,-0.083984,0.678223,0.137405,-2.076336,42.847328
0.526367,-0.079590,0.674561,-0.061069,-2.328244,44.190838
0.506348,-0.082275,0.657959,-0.656489,-2.442748,46.465649
0.471680,-0.081787,0.662109,-2.763359,-3.198473,52.419846
0.459229,-0.060791,0.643799,-6.473282,-4.450382,57.984734
0.465576,-0.075928,0.645020,-8.061069,-5.175572,61.290077
0.470215,-0.081787,0.648193,-7.465649,-5.122138,64.160309
0.479248,-0.082520,0.667725,-8.419847,-3.992366,66.687019
0.471436,-0.083008,0.677002,-9.145039,-5.076336,68.526718
0.475342,-0.092041,0.672363,-8.503817,-8.465649,69.503815
0.476074,-0.072998,0.666260,-10.450381,-7.389313,71.877861
0.473633,-0.077148,0.680420,-14.282443,-5.580153,75.091606
0.480469,-0.077881,0.656982,-14.702291,-3.305344,77.717560
0.484863,-0.093750,0.685059,-13.221375,-5.030534,77.854965
0.468750,-0.103027,0.672852,-12.221375,-3.908397,79.694656
0.464111,-0.091797,0.696289,-13.740458,-6.992366,80.893127
0.469727,-0.091064,0.679199,-14.793893,-9.732824,80.770996
0.469238,-0.086670,0.659668,-16.297710,-12.099236,79.694656
0.464844,-0.099609,0.661133,-18.854961,-19.458015,76.480919
0.477051,-0.083984,0.655518,-20.358778,-29.236641,71.244278
0.452637,-0.080322,0.643799,-23.633587,-34.511452,70.030533
0.435547,-0.072510,0.636719,-30.312977,-38.236641,71.480919
0.417480,-0.092529,0.638916,-31.312977,-41.152672,74.679390
0.430176,-0.103516,0.648193,-27.450382,-43.549618,73.862595
0.475830,-0.089355,0.655273,-25.946566,-40.839695,72.870232
0.489014,-0.052490,0.648682,-24.900763,-39.244274,71.083969
0.503174,-0.081055,0.654541,-26.068703,-38.450382,67.503815
0.535400,-0.086426,0.652588,-27.862595,-33.977100,63.534351
0.504395,-0.122803,0.687744,-24.129770,-34.931297,61.603054
0.521240,-0.105957,0.691895,-21.442749,-35.854961,57.877861
0.503418,-0.115234,0.689453,-19.725191,-32.931297,56.145039
0.446533,-0.101562,0.672852,-19.709923,-36.893131,56.251907
0.454834,-0.095459,0.664062,-23.396946,-36.992367,58.633587
0.482178,-0.083740,0.651855,-25.114504,-36.221375,56.702290
0.527588,-0.090576,0.628174,-25.404581,-34.206108,51.305344
0.517822,-0.082275,0.618408,-27.625954,-29.809160,49.877861
0.476807,-0.080322,0.635986,-30.480917,-29.427481,50.816795
0.484131,-0.091553,0.645752,-30.969465,-28.534351,50.511452
0.503662,-0.119629,0.686035,-22.152672,-28.145039,46.656490
0.541260,-0.139893,0.704102,-11.603053,-26.480917,41.595421
0.522461,-0.136230,0.730225,-4.580153,-25.290077,38.366413
0.504639,-0.129883,0.707764,-2.244275,-27.656488,36.709923
0.512207,-0.114502,0.684570,-4.809160,-26.671755,35.267174
0.499512,-0.097412,0.657959,-9.099236,-25.511450,37.580154
0.496582,-0.090820,0.646973,-14.526717,-25.366413,37.076336
0.492920,-0.068115,0.621582,-16.229008,-24.786259,38.320610
0.499023,-0.097412,0.653320,-17.732824,-28.641222,35.114502
0.528564,-0.102295,0.627686,-16.381680,-24.809160,31.870230
0.533447,-0.089600,0.642090,-16.290077,-23.480917,29.152672
0.519043,-0.099121,0.650635,-17.679390,-20.213741,27.923664
0.500244,-0.133545,0.659424,-15.664123,-19.519083,27.427481
0.489258,-0.102295,0.639648,-12.839695,-20.412214,27.206106
0.492188,-0.108887,0.648682,-12.610687,-17.740458,27.106871
0.458252,-0.114746,0.658691,-10.274809,-18.030535,26.381680
0.449219,-0.109375,0.647705,-7.496183,-19.938931,24.236641
0.444580,-0.119385,0.697266,-4.305344,-19.671755,24.396946
0.419678,-0.126465,0.684326,-0.847328,-21.015266,25.290077
0.412354,-0.125000,0.673340,1.091603,-21.007633,28.038168
0.425537,-0.108154,0.674805,-1.908397,-21.404581,30.709923
0.430664,-0.149902,0.654053,-3.076336,-16.709923,32.954197
0.459717,-0.102539,0.649170,-1.740458,-23.076336,30.694656
0.506348,-0.091553,0.635254,-2.267176,-16.740458,29.167938
0.458984,-0.083740,0.612549,-1.885496,-17.595419,26.885496
0.435791,-0.069580,0.630371,-3.526718,-21.900763,26.816793
0.434326,-0.062988,0.617920,-6.541985,-22.877863,24.061069
0.447754,-0.097900,0.614746,-4.320611,-18.625954,28.694656
0.463135,-0.083008,0.619873,-2.343511,-23.534351,26.603054
0.494629,-0.099121,0.646973,-1.725191,-17.473282,26.335878
0.458984,-0.074219,0.651855,1.160305,-21.106871,22.183207
0.482910,-0.091797,0.680664,4.671756,-20.297710,20.824427
0.485840,-0.099609,0.664307,7.916030,-20.175573,19.282442
0.450439,-0.082031,0.646484,8.114504,-20.190840,20.641222
0.441650,-0.067871,0.630615,6.312977,-21.870230,22.068703
0.471191,-0.047607,0.620117,3.969466,-20.129770,21.717558
0.441406,-0.051270,0.613037,3.396947,-14.610687,22.809160
0.433105,-0.046143,0.604736,3.984733,-24.870230,19.488550
0.479004,-0.055420,0.601318,1.244275,-19.312977,21.000000
0.464844,-0.064941,0.625732,0.038168,-20.534351,21.083969
0.477051,-0.083008,0.642334,1.679389,-18.923664,20.137405
0.469482,-0.107422,0.684814,6.809160,-20.557251,19.000000
0.478516,-0.113525,0.702881,8.305344,-19.732824,16.442749
0.467041,-0.143555,0.706299,13.221375,-15.923664,18.908398
0.466309,-0.113037,0.716553,18.419847,-22.763359,16.587786
0.493164,-0.100586,0.708740,20.984734,-15.572519,18.977098
0.442139,-0.097900,0.690430,24.221375,-20.717558,19.793894
0.451660,-0.070801,0.659424,23.320610,-19.297710,21.610687
0.481934,-0.055908,0.636475,19.076336,-19.755726,18.427481
0.489746,-0.059570,0.629639,16.396946,-10.465649,22.335878
0.476562,-0.045654,0.654785,16.519083,-23.702290,17.687023
0.534668,-0.041748,0.643066,14.694656,-18.931297,17.358778
0.507324,-0.050293,0.653564,13.770992,-19.038168,17.580153
0.480957,-0.045410,0.676270,10.015267,-19.458015,17.114504
0.478271,-0.085938,0.672852,12.984733,-10.740458,23.328245
0.461914,-0.045410,0.678711,21.076336,-19.977098,24.496183
0.479004,-0.024170,0.687500,18.396946,-13.389313,22.374046
0.406250,-0.038574,0.669922,19.480917,-14.244275,23.366413
0.399658,-0.028320,0.688232,16.656488,-19.656488,23.984734
0.393555,-0.061279,0.704590,17.664122,-22.259542,23.244274
0.415771,-0.044678,0.734131,18.282442,-27.465649,23.305344
0.439209,-0.050293,0.716553,19.000000,-24.030535,24.000000
0.477783,-0.031982,0.685303,17.969465,-12.977099,29.954199
0.459961,-0.047363,0.721436,17.312977,-21.816793,26.229008
0.489014,-0.042725,0.705322,13.625955,-21.152672,24.488550
0.471436,-0.026123,0.685547,11.244275,-19.687023,25.236641
0.444092,-0.011230,0.690674,5.106870,-22.839695,24.106871
0.457031,-0.006836,0.674805,2.541985,-15.114504,29.717558
0.424072,-0.017578,0.698242,3.015267,-20.022902,29.687023
0.421631,-0.007812,0.684814,3.106870,-26.717558,26.671755
0.425781,0.007568,0.681885,-0.580153,-21.106871,31.068703
0.377441,-0.013428,0.726807,-3.694656,-28.007633,33.412212
0.459473,-0.031494,0.724854,-3.763359,-14.190840,45.946564
0.485107,-0.055664,0.797119,1.427481,-15.015267,42.786259
0.508057,-0.049072,0.750244,5.137404,-17.900763,38.938931
0.525391,-0.012207,0.706299,1.938931,-10.557252,43.122139
0.503418,0.005127,0.681152,-1.068702,-8.923664,45.015266
0.526367,0.018066,0.666016,-3.183206,-8.717557,41.198475
0.482910,0.041260,0.646240,-3.931298,-8.809160,36.946564
0.419678,0.046143,0.656494,-6.519084,-13.572519,34.503819
0.414062,0.045166,0.632324,-9.480916,-12.916031,34.633587
0.389160,0.020020,0.658203,-12.106871,-16.786259,34.984734
0.388916,0.001709,0.696289,-13.587787,-19.946566,36.358780
0.415039,-0.016846,0.689697,-14.297709,-18.984734,39.938931
0.438965,-0.038086,0.707764,-17.816793,-19.511450,43.229008
0.462891,-0.044922,0.710693,-19.175573,-17.511450,43.969467
0.500000,-0.047852,0.732666,-20.938931,-18.938931,41.839695
0.515869,-0.031006,0.699707,-20.977098,-16.435114,41.076336
0.507568,-0.015381,0.673096,-21.816793,-16.687023,39.633587
0.498779,-0.002441,0.673340,-22.893129,-18.893129,36.427483
0.477539,0.006348,0.660400,-25.580153,-22.709923,34.526718
0.478271,0.017822,0.632568,-30.076336,-20.496183,33.740459
0.475586,0.010742,0.641846,-35.213741,-21.740458,34.160305
0.460205,-0.008789,0.661621,-41.534351,-24.923664,33.839695
0.489990,-0.029297,0.677246,-42.442749,-24.320610,38.038166
0.506592,-0.046875,0.696533,-45.274811,-22.381680,40.022900
0.504395,-0.078369,0.714600,-40.267174,-25.015266,37.656490
0.511963,-0.089600,0.742920,-38.374046,-33.465649,35.045803
0.537109,-0.079590,0.704346,-37.541985,-26.648855,36.000000
0.503418,-0.062500,0.680664,-41.687023,-29.198473,35.671757
0.531494,-0.036865,0.634766,-46.572517,-20.251909,37.480915
0.513184,-0.026611,0.659912,-52.015266,-19.251909,36.022900
0.512939,-0.015625,0.630371,-52.282444,-11.679389,37.717556
0.485107,-0.020508,0.625488,-54.366413,-10.152672,38.183205
0.490234,-0.051025,0.632080,-53.572517,-10.259542,38.190838
0.511230,-0.076904,0.660889,-50.190838,-9.526717,34.038166
0.480957,-0.112793,0.674561,-43.458015,-9.961832,32.923664
0.473633,-0.108154,0.687256,-41.625954,-8.908397,29.488550
0.484131,-0.155762,0.710693,-40.038166,-6.748092,27.465649
0.461426,-0.178955,0.742676,-36.503819,-7.885496,26.335878
0.473145,-0.172607,0.749756,-31.648855,-7.114504,25.022902
0.456543,-0.151123,0.679688,-32.297710,-4.900764,27.694656
0.439941,-0.131836,0.679688,-36.709923,-4.122138,27.656488
0.457764,-0.098877,0.649414,-37.488548,-1.916031,26.770992
0.452393,-0.097900,0.635742,-41.755726,-0.587786,25.648855
0.411133,-0.067139,0.598633,-49.290077,-2.763359,26.755726
0.400146,-0.061768,0.583984,-55.129772,-10.053435,23.732824
0.395020,-0.084961,0.630127,-52.503819,-15.961832,19.923664
0.376709,-0.121338,0.667236,-46.458015,-21.015266,18.152672
0.374023,-0.169678,0.702148,-41.335876,-23.022902,18.770992
0.374268,-0.207275,0.736572,-31.343512,-27.702290,17.557251
0.391846,-0.241699,0.778809,-17.854961,-28.076336,18.687023
0.439697,-0.235107,0.760986,-7.137404,-24.282442,21.358778
0.476562,-0.189209,0.705811,-2.229008,-18.160305,25.099237
0.491211,-0.149902,0.641357,0.801527,-16.938931,23.625954
0.468506,-0.089111,0.588379,-2.885496,-16.503817,22.175573
0.502930,-0.040039,0.529297,-11.893129,-14.877863,18.923664
0.527344,-0.015381,0.489746,-22.091602,-8.045801,17.297710
0.458984,-0.023926,0.541260,-30.320610,-10.251908,14.977099
0.423340,-0.037598,0.554199,-36.458015,-11.923664,14.954199
0.435791,-0.066650,0.579590,-42.587788,-13.633588,11.992367
0.423340,-0.075439,0.581787,-44.236641,-12.763359,11.961832
0.382812,-0.100342,0.606934,-42.137405,-14.717557,12.908397
0.381836,-0.148438,0.643555,-33.633587,-14.786260,16.030535
0.407959,-0.189697,0.675049,-22.076336,-15.343512,16.961832
0.446533,-0.173340,0.648438,-13.213740,-10.412213,19.946566
0.447266,-0.153076,0.586182,-12.076336,-9.488549,23.053434
0.458252,-0.137451,0.570312,-15.610687,-10.320611,20.137405
0.474609,-0.110840,0.540039,-18.045801,-12.007633,16.221375
0.474609,-0.100586,0.532715,-21.206106,-13.931297,14.053435