acce_x,acce_y,acce_z,gyro_x,gyro_y,gyro_z
1.575241,1.575237,0.000000,0.000000,-0.000000,1.575245
0.638428,-0.016357,0.702148,-10.099236,4.076336,3.824427
0.636230,-0.031250,0.703613,-9.381680,4.946565,2.916031
0.625977,-0.032959,0.722900,-8.328244,5.015267,1.984733
0.625488,-0.044189,0.717285,-6.725191,4.908397,0.687023
0.624756,-0.043213,0.744385,-4.824428,3.083969,-1.152672
0.599365,-0.049561,0.738281,-2.541985,-0.129771,-2.167939
0.587646,-0.048828,0.729980,-1.664122,-3.229008,-1.435115
0.583496,-0.041260,0.739990,-1.389313,-4.137404,-0.267176
0.584961,-0.036133,0.724365,-0.427481,-5.015267,0.625954
0.596680,-0.029297,0.708984,-0.793893,-4.793893,2.435115
0.588867,-0.028809,0.699463,-1.564885,-3.328244,5.114504
0.599609,-0.030273,0.717285,-1.961832,-0.412214,6.511450
0.609375,-0.033203,0.701660,-2.129771,1.595420,7.053435
0.615234,-0.025635,0.695068,-3.061069,3.419847,7.770992
0.628662,-0.034668,0.694580,-3.809160,3.854962,7.572519
0.631836,-0.036865,0.702637,-3.824427,3.503817,6.259542
0.612793,-0.038818,0.712402,-3.595420,2.221374,5.198473
0.606201,-0.034424,0.722900,-3.190840,0.595420,5.183206
0.606445,-0.036621,0.729248,-2.244275,-0.717557,3.687023
0.625977,-0.035400,0.727539,-1.916031,-1.007634,2.061069
0.619629,-0.031982,0.720459,-1.572519,-1.412214,1.198473
0.608398,-0.026123,0.716309,-1.893130,-1.625954,2.030534
0.610840,-0.024170,0.723877,-2.366412,0.129771,3.648855
0.597168,-0.032715,0.709229,-2.015267,1.274809,5.465649
0.603516,-0.033203,0.712646,-0.610687,0.893130,7.045802
0.580078,-0.022705,0.702881,-0.511450,-1.038168,9.557252
0.565430,-0.016357,0.707031,-0.679389,-1.824427,12.732824
0.571777,-0.027588,0.724121,-0.557252,-2.190840,15.000000
0.580811,-0.040771,0.727539,1.435115,-3.862595,15.641221
0.594727,-0.040527,0.722900,1.618321,-3.114504,16.526718
0.574219,-0.035889,0.710693,1.587786,-4.282443,17.786259
0.581299,-0.037109,0.701660,1.259542,-4.916030,19.183207
0.583740,-0.036133,0.714600,1.145038,-5.259542,20.007633
0.605957,-0.029541,0.700195,0.969466,-5.290076,20.236641
0.613281,-0.033203,0.709473,0.450382,-3.244275,20.465649
0.619385,-0.032959,0.723145,-0.312977,-2.862595,20.068703
0.620605,-0.036865,0.723389,-0.114504,-2.916031,19.083969
0.609619,-0.035645,0.726562,0.679389,-3.931298,18.030535
0.590820,-0.032471,0.719971,0.740458,-6.198473,18.213741
0.569092,-0.028809,0.725098,1.503817,-7.419847,20.160305
0.548096,-0.030518,0.744873,1.900763,-8.312977,23.465649
0.520996,-0.033936,0.736816,1.961832,-9.167939,27.893129
0.500732,-0.027100,0.724609,1.832061,-10.038168,33.770992
0.504639,-0.026855,0.725830,1.595420,-9.961832,39.908398
0.515625,-0.035645,0.727295,2.435115,-9.137404,43.969467
0.562500,-0.043945,0.728760,4.091603,-9.473283,44.557251
0.598877,-0.047363,0.710449,6.778626,-9.000000,42.267174
0.615723,-0.036133,0.710205,7.297710,-8.595420,40.793892
0.617432,-0.025635,0.708252,5.633588,-9.198473,39.236641
0.608398,-0.012939,0.702637,3.091603,-10.671756,37.832062
0.594727,-0.017334,0.691650,4.068702,-12.793893,36.793892
0.596680,-0.019775,0.722412,3.679389,-12.618320,37.099236
0.570801,-0.017090,0.714600,2.885496,-12.343512,37.984734
0.555176,-0.015381,0.703613,1.671756,-12.312977,39.351147
0.542480,-0.007080,0.704346,-0.557252,-13.198473,41.412212
0.552734,0.002930,0.703613,-3.511450,-11.221375,44.297710
0.570068,-0.001953,0.702393,-6.671756,-9.641221,45.183205
0.580811,-0.009277,0.715332,-9.725191,-8.427481,44.625954
0.612549,-0.021729,0.733887,-8.221375,-8.114504,41.557251
0.639648,-0.035156,0.746338,-3.152672,-7.183206,37.541985
0.648193,-0.026123,0.744141,-1.038168,-3.236641,33.236641
0.636719,-0.013184,0.708008,-2.511450,-2.396947,28.862595
0.605713,-0.001709,0.704346,-4.732824,-3.816794,27.015266
0.573975,0.002441,0.693359,-4.114504,-7.946565,26.786259
0.527100,-0.014893,0.686768,-0.900763,-13.862596,28.183207
0.466309,0.008545,0.667480,-0.862595,-21.763359,33.045803
0.450439,0.009277,0.663330,-4.175572,-24.671755,40.190838
0.448242,0.005127,0.674072,-6.625954,-24.312977,47.511452
0.438477,-0.011230,0.682373,-6.190840,-23.442749,54.534351
0.470215,-0.008301,0.688477,-4.190840,-19.305344,61.511452
0.504150,-0.019775,0.711914,-3.961832,-15.946565,64.992363
0.514404,-0.029785,0.708008,-1.137405,-19.106871,64.870232
0.543945,-0.039062,0.729736,0.358779,-21.221375,64.137405
0.546143,-0.040283,0.739258,2.969466,-25.687023,62.519085
0.530029,-0.030762,0.737793,4.801527,-30.282442,61.648853
0.541504,-0.028564,0.734131,4.610687,-32.603054,60.732826
0.531250,-0.032227,0.699219,6.198473,-33.809162,61.625954
0.521973,-0.012451,0.703369,4.473282,-35.595421,62.450382
0.565918,-0.019531,0.687500,0.236641,-34.610687,61.305344
0.561035,-0.023926,0.688477,-1.511450,-36.549618,58.931297
0.583984,-0.020996,0.718262,-1.160305,-35.145039,57.030533
0.580078,-0.022217,0.750977,-0.923664,-33.221375,56.625954
0.573730,-0.031006,0.749512,0.152672,-29.717558,56.152672
0.571045,-0.022461,0.757568,0.465649,-27.198473,55.358780
0.579102,-0.033936,0.759521,1.045802,-22.923664,53.954197
0.598877,-0.027588,0.740967,1.557252,-19.251909,51.503819
0.585693,-0.027344,0.731934,2.488550,-21.106871,47.641220
0.594482,-0.020020,0.731445,3.564885,-20.221375,44.931297
0.584473,-0.009766,0.724854,2.816794,-21.305344,42.641220
0.579346,0.010010,0.705811,0.374046,-20.083969,43.183205
0.554443,-0.002197,0.708008,1.290076,-20.000000,43.229008
0.552979,0.009277,0.722656,1.358779,-18.664122,44.358780
0.544434,0.010010,0.703613,-0.778626,-17.671755,45.946564
0.542969,0.028320,0.700439,-5.167939,-12.847328,49.305344
0.564209,0.019531,0.717285,-7.687023,-6.282443,51.358780
0.572998,0.011475,0.723389,-8.190840,-2.251908,51.267174
0.571045,0.000732,0.743164,-7.671756,-1.236641,49.511452
0.580078,-0.001465,0.757812,-5.435114,-0.183206,47.183205
0.583740,-0.011230,0.764893,-2.152672,-0.114504,44.641220
0.565430,-0.008789,0.759277,-0.198473,-3.564885,42.076336
0.543701,-0.004639,0.751709,-0.114504,-7.351145,40.748093
0.541260,0.004395,0.731689,-1.419847,-5.282443,41.648853
0.514893,0.001221,0.703857,-2.549618,-5.091603,42.061069
0.506836,0.010498,0.701172,-5.290076,-3.229008,43.557251
0.494385,0.017822,0.694580,-7.435114,-3.961832,44.664124
0.515137,0.016846,0.686768,-9.290076,-2.633588,44.610687
0.525635,0.013184,0.719238,-10.839695,-1.916031,43.725189
0.524170,0.006348,0.733154,-10.251908,-0.335878,43.603054
0.525879,0.008789,0.746094,-7.961832,0.442748,42.099236
0.535400,0.002686,0.749268,-7.221374,0.007634,39.625954
0.536865,0.002441,0.759277,-6.748092,-0.526718,36.946564
0.532471,0.009033,0.753418,-4.832061,-2.442748,33.687023
0.516113,-0.009521,0.746582,-3.969466,-5.625954,31.152672
0.473633,-0.007324,0.740479,-2.091603,-9.030535,31.435114
0.428955,0.002197,0.686768,-0.312977,-12.030535,34.549618
0.410889,0.016602,0.668213,-4.061069,-12.748092,38.870228
0.413818,0.027832,0.645020,-8.641221,-11.778625,42.992367
0.420410,0.029053,0.647949,-13.152672,-9.038168,46.801525
0.446289,0.029541,0.670654,-15.740458,-3.931298,49.083969
0.468506,0.019287,0.718750,-16.206106,-0.183206,49.618320
0.486328,0.004150,0.745361,-11.526717,0.954198,47.839695
0.503174,-0.008789,0.764648,-7.045802,0.778626,44.450382
0.506348,-0.011230,0.791260,-3.221374,-3.167939,40.450382
0.505127,-0.007080,0.781250,-0.664122,-4.885496,37.702290
0.500488,0.008057,0.760498,0.961832,-8.603053,35.488548
0.508789,0.002930,0.758057,2.312977,-12.816793,32.908398
0.504883,-0.012939,0.719482,4.122138,-20.961832,29.145039
0.482666,0.009766,0.718750,3.297710,-20.854961,28.259542
0.458984,0.027588,0.696045,-0.175573,-23.427481,30.847328
0.464844,0.024902,0.685059,-4.366412,-23.404581,33.000000
0.463135,0.032959,0.703125,-9.030535,-20.938931,34.473282
0.481934,0.028564,0.711426,-11.137404,-19.648855,35.366413
0.467285,0.017334,0.735107,-10.900764,-16.167938,36.000000
0.469727,0.015625,0.749023,-7.190840,-16.923664,36.129772
0.481201,0.007812,0.767334,-5.503817,-15.442748,34.175571
0.485840,-0.009521,0.787354,-2.610687,-19.572519,30.954199
0.492432,0.004639,0.785156,-0.916031,-20.870230,28.801527
0.490967,0.009521,0.774414,0.625954,-24.419847,27.167938
0.494629,0.008789,0.766846,1.503817,-24.977098,25.633587
0.460693,0.003662,0.742432,2.198473,-27.748091,24.770992
0.483643,0.022461,0.719238,-1.152672,-20.175573,26.633587
0.427002,0.013916,0.721924,-1.694656,-26.908398,26.274809
0.473633,0.031738,0.717529,-4.053435,-25.580153,26.862595
0.443604,0.032959,0.703857,-6.122138,-26.633587,28.519083
0.442383,0.025879,0.696533,-7.160306,-24.877863,31.396946
0.444824,0.018311,0.714355,-4.847328,-25.335878,31.030535
0.450928,0.017334,0.734619,-2.206107,-30.923664,28.160305
0.496582,0.035400,0.743164,-3.732824,-25.603054,27.816793
0.483154,0.016113,0.722168,-1.335878,-25.503817,27.167938
0.494141,0.023193,0.725586,-1.870229,-21.549618,26.312977
0.489990,0.019531,0.720703,-2.312977,-23.931297,25.122137
0.494873,0.027344,0.723877,-4.137404,-22.198473,25.244274
0.512695,0.026855,0.725098,-4.877862,-20.938931,24.503817
0.488525,0.020996,0.712402,-6.091603,-23.625954,24.106871
0.467529,0.036865,0.698486,-7.312977,-27.480917,23.603054
0.464111,0.041016,0.677979,-9.656488,-29.328245,24.068703
0.458252,0.036621,0.674072,-11.580153,-30.580153,24.961832
0.472656,0.028809,0.704590,-9.847328,-34.030533,23.732824
0.492432,0.014160,0.735840,-5.435114,-37.648853,19.992367
0.539551,0.020508,0.742188,-4.038168,-29.175573,19.679390
0.503906,0.015137,0.739258,-2.419847,-28.290077,20.786259
0.509521,0.016113,0.721191,-3.129771,-21.832062,23.969465
0.497803,0.023926,0.720459,-3.229008,-19.221375,26.122137
0.510986,0.023682,0.703125,-3.068702,-16.564886,27.351145
0.507324,0.017822,0.691406,-2.473282,-14.778625,27.839695
0.461914,0.029541,0.678955,-3.503817,-17.610687,30.122137
0.438232,0.042725,0.667236,-6.175572,-21.480917,31.801527
0.459229,0.052002,0.656250,-10.282443,-22.450382,32.870228
0.442139,0.048584,0.674805,-12.549619,-26.206106,32.847328
0.467773,0.052002,0.678223,-13.816793,-27.725191,32.007633
0.483154,0.029297,0.702393,-14.664123,-24.702290,31.786259
0.496338,0.017822,0.733887,-13.725191,-25.251909,31.664122
0.514160,0.004883,0.749756,-12.564885,-24.328245,32.625954
0.559570,-0.008057,0.768066,-11.244275,-20.694656,32.961834
0.539062,-0.007568,0.754150,-8.900764,-18.045801,32.099236
0.510010,-0.000977,0.737549,-7.297710,-18.748091,32.450382
0.482666,0.001465,0.736084,-8.580153,-20.870230,35.198475
0.483154,0.006592,0.738770,-10.541985,-20.656488,36.847328
0.484375,0.017334,0.716553,-8.885496,-26.091602,34.954197
0.501953,0.026855,0.713379,-7.458015,-27.022902,33.580154
0.515869,0.038086,0.701660,-6.709924,-26.992367,31.519083
0.504883,0.040039,0.675293,-7.755725,-24.045801,31.213741
0.493408,0.046387,0.674316,-11.091603,-24.969465,32.496181
0.531738,0.038574,0.701172,-13.801527,-24.816793,31.755726
0.560303,0.020508,0.721680,-14.129771,-24.870230,29.877863
0.576416,0.008057,0.748535,-11.419847,-25.511450,27.908398
0.581055,0.003906,0.766357,-8.053435,-22.725191,26.396946
0.640625,0.013672,0.788818,-7.572519,-15.648855,24.641222
0.593506,-0.008545,0.760498,-3.755725,-15.900764,23.198473
0.575195,0.001465,0.742188,-4.068702,-12.603053,23.167938
0.568604,0.007812,0.771240,-3.427481,-15.175572,21.534351
0.584961,0.005127,0.751953,-1.030534,-14.519084,17.122137
0.575684,0.027832,0.730469,-2.137405,-10.229008,14.702291
0.550049,0.027832,0.713135,-4.557252,-7.549618,13.244275
0.527344,0.034424,0.712891,-5.595420,-11.671756,11.229008
0.518066,0.032227,0.710205,-6.961832,-15.992367,8.137404
0.521484,0.030518,0.712158,-11.137404,-14.900764,8.763359
0.510742,0.018799,0.717529,-15.274809,-12.641221,11.916031
0.505615,0.000732,0.755127,-14.198473,-13.809160,13.694656
0.499756,-0.007812,0.780762,-12.190840,-10.961832,15.709924
0.460938,-0.009033,0.779053,-7.816794,-14.137404,17.648855
0.490234,-0.007324,0.792725,-5.816794,-12.564885,19.580153
0.486084,-0.011719,0.778809,-3.312977,-12.435115,22.106871
0.466553,0.007812,0.763428,-1.801527,-13.068703,24.870230
0.462891,0.007812,0.742920,-1.068702,-21.305344,26.900763
0.502930,0.014160,0.742676,-2.274809,-16.748091,29.259542
0.478760,0.011963,0.732422,-0.412214,-23.374046,28.603054
0.500244,0.012695,0.730469,-0.038168,-22.877863,28.083969
0.489014,0.011475,0.747314,-2.496183,-20.557251,29.641222
0.483154,0.000732,0.750488,-4.946565,-25.755726,31.068703
0.502686,-0.005127,0.756592,-6.351145,-27.404581,29.770992
0.517334,0.005859,0.733643,-7.061069,-25.900763,28.282442
0.501465,0.018066,0.731689,-7.511450,-21.404581,27.816793
0.512695,0.020508,0.721436,-8.648855,-21.519083,27.198473
0.520020,0.028809,0.692139,-10.931297,-24.221375,25.206106
0.536377,0.052246,0.677002,-11.793893,-24.213741,25.404581
0.535889,0.034424,0.661377,-11.427481,-24.114504,24.908398
0.530518,0.044189,0.667480,-11.297709,-27.389313,25.099237
0.562012,0.047363,0.657227,-10.320611,-25.671755,23.618320
0.574219,0.048584,0.644775,-8.625955,-24.206106,22.000000
0.587891,0.052002,0.634277,-11.603053,-18.076336,22.358778
0.552002,0.040039,0.633545,-16.198473,-14.916031,24.534351
0.527100,0.038330,0.648438,-20.969465,-14.320611,24.984734
0.479492,0.013672,0.687012,-24.824427,-15.633588,26.297710
0.476562,0.005127,0.682617,-28.862595,-12.610687,29.908398
0.468018,0.001953,0.737305,-28.862595,-11.656488,35.015266
0.437500,-0.044678,0.799316,-22.503817,-21.946566,33.541985
0.443848,-0.079102,0.823975,-15.236641,-28.755726,34.251907
0.473877,-0.090576,0.838623,-12.618320,-30.175573,39.030533
0.630371,-0.132324,0.909180,-8.541985,-25.267176,43.282444
0.729980,-0.204590,0.994629,6.809160,-26.885496,36.030533
0.733887,-0.171387,0.907959,19.427481,-11.503817,29.152672
0.766602,-0.046143,0.824951,19.496183,0.053435,30.343512
0.548340,-0.055420,0.670898,22.580153,-26.328245,27.206106
0.655273,0.078125,0.654053,4.519084,-13.007633,25.015266
0.567139,0.082031,0.647461,-3.816794,-15.580153,24.442749
0.535156,0.075195,0.638672,-10.496183,-25.167938,23.625954
0.577881,0.102051,0.609131,-19.076336,-25.755726,23.045801
0.577881,0.086426,0.623047,-27.427481,-26.854961,21.221375
0.543701,0.057861,0.632080,-31.725191,-32.488548,20.419847
0.555420,0.033203,0.668701,-33.290077,-32.198475,23.267176
0.555176,-0.004150,0.730957,-34.198475,-8.793893,24.664122
0.463379,-0.049072,0.751221,-20.244274,-33.442749,24.816793
0.526855,-0.034424,0.810791,-14.984733,-33.183205,23.167938
0.512939,-0.026855,0.776855,-12.381680,-30.938931,25.076336
0.515137,0.004150,0.765381,-11.412213,-23.358778,26.053434
0.516113,0.007080,0.757812,-10.137404,-24.488550,25.862595
0.528320,0.009033,0.733398,-10.931297,-24.396946,26.847328
0.542969,0.021484,0.711182,-11.938931,-21.274809,24.809160
0.583496,0.046143,0.680420,-15.717557,-18.587786,23.442749
0.534424,0.051514,0.639160,-18.366413,-23.083969,21.977098
0.528809,0.040527,0.651611,-23.190840,-28.740458,21.030535
0.556885,0.039551,0.642822,-27.984734,-25.877863,23.083969
0.544922,-0.006836,0.660400,-32.564884,-25.732824,25.053434
0.578125,-0.046631,0.708984,-29.816793,-23.534351,25.083969
0.587402,-0.076660,0.784668,-22.541985,-28.007633,23.366413
0.584717,-0.080566,0.778076,-11.923664,-26.053434,25.114504
0.574463,-0.075439,0.786621,-5.625954,-28.809160,24.366413
0.614502,-0.060059,0.747803,-2.022901,-23.480917,21.977098
0.572266,-0.016113,0.695557,-3.916031,-19.480917,21.580153
0.548340,0.015625,0.631836,-10.389313,-25.389313,23.473282
0.547119,0.016846,0.620605,-19.053434,-40.885498,18.603054
0.600830,0.004395,0.602783,-31.152672,-28.496183,15.099236
0.872314,0.139160,0.867188,-43.396946,3.183206,19.206106
0.317871,-0.035400,0.652100,-35.725189,-52.946564,26.045801
0.770508,0.005127,0.771973,-49.656490,28.977098,30.160305
0.387695,-0.158691,0.586914,-37.030533,-53.610687,20.916031
0.673096,-0.056641,0.713867,-37.320610,-2.404580,25.664122
0.628662,-0.093994,0.704102,-24.969465,-39.916031,26.839695
0.663574,-0.093750,0.685059,-24.221375,-23.916031,26.847328
0.656738,-0.086670,0.615234,-22.496183,-14.587787,29.106871
0.608398,-0.076172,0.685059,-24.832062,-20.480917,27.236641
0.662354,-0.068359,0.634521,-30.641222,-17.549618,25.969465
0.647949,-0.067383,0.615234,-34.984734,-16.793894,20.931297
0.645020,-0.069336,0.614258,-37.732826,-15.473283,19.503817
0.608643,-0.070312,0.658936,-39.709923,-10.129771,18.007633
0.608398,-0.134521,0.722656,-34.648853,-12.534351,15.458015
0.600830,-0.122314,0.721680,-25.427481,-9.938931,14.450381
0.575928,-0.114990,0.729980,-20.389313,-6.961832,14.221375