acce_x,acce_y,acce_z,gyro_x,gyro_y,gyro_z
0.037354,-0.442383,0.770264,-2.221374,3.282443,-8.778625
0.029785,-0.438477,0.766113,-2.465649,4.312977,-9.030535
0.026855,-0.436523,0.761230,-2.954198,4.358778,-8.801527
0.028564,-0.446777,0.757324,-2.709924,4.206107,-9.427481
0.042969,-0.442139,0.757080,-2.519084,3.557252,-12.152672
0.050293,-0.438965,0.764893,-2.687023,2.641221,-15.480916
0.062500,-0.436279,0.772461,-2.916031,2.961832,-19.366413
0.065430,-0.437012,0.764648,-3.129771,3.656489,-22.847328
0.068604,-0.436768,0.766113,-3.022901,5.763359,-25.870230
0.082520,-0.436768,0.777832,-3.969466,8.503817,-30.160305
0.096191,-0.435547,0.762451,-5.007634,11.381680,-35.473282
0.112793,-0.430908,0.764648,-6.000000,13.984733,-41.396946
0.155273,-0.434570,0.772705,-7.389313,17.519083,-49.541985
0.161621,-0.433838,0.766357,-8.625955,19.091602,-58.000000
0.162109,-0.446289,0.774170,-8.648855,21.236641,-65.465652
0.147705,-0.452881,0.783447,-8.129771,22.343512,-70.916031
0.110352,-0.456787,0.789062,-7.740458,23.870230,-72.732826
0.072510,-0.464111,0.788818,-7.725191,24.618320,-72.717560
0.030273,-0.461182,0.770752,-8.160305,24.549618,-70.290077
-0.008301,-0.458252,0.764648,-8.885496,24.763359,-66.137405
-0.034668,-0.457031,0.752930,-9.450381,24.625954,-61.541985
-0.055664,-0.459229,0.757568,-9.961832,24.083969,-56.557251
-0.074463,-0.469727,0.766602,-9.725191,22.656488,-51.580154
-0.099365,-0.472656,0.774658,-8.419847,19.916031,-46.061069
-0.104492,-0.484619,0.791260,-7.183206,17.045801,-39.633587
-0.071289,-0.489014,0.793457,-7.000000,15.190840,-35.480915
-0.026367,-0.486084,0.793701,-6.633588,14.473283,-34.458015
0.013916,-0.493408,0.811768,-5.694656,14.916031,-34.931297
0.066650,-0.493164,0.817383,-4.793893,18.282442,-37.580154
0.100830,-0.496826,0.820557,-2.763359,22.015266,-41.427483
0.105713,-0.480469,0.809814,-2.328244,25.534351,-43.809162
0.088379,-0.469238,0.769287,-2.374046,26.099237,-45.190838
0.050293,-0.446777,0.752441,-2.854962,24.770992,-44.396946
0.023193,-0.446777,0.731934,-3.824427,21.946566,-41.183205
0.007812,-0.434570,0.724365,-5.099236,19.595419,-36.778625
0.003662,-0.428711,0.719482,-5.938931,17.274809,-31.824427
0.020752,-0.438232,0.710205,-6.190840,14.229008,-27.992367
0.043213,-0.441895,0.734619,-5.900764,13.259542,-25.625954
0.076904,-0.459717,0.763184,-5.229008,13.053435,-25.931297
0.094727,-0.463379,0.762207,-4.633588,13.343512,-27.061069
0.113281,-0.463867,0.745850,-3.916031,12.954199,-28.832062
0.144043,-0.465820,0.755127,-4.366412,12.671756,-33.526718
0.171631,-0.456543,0.739746,-4.877862,12.793893,-39.526718
0.169434,-0.447021,0.718262,-5.984733,12.053435,-44.541985
0.159424,-0.442627,0.707764,-7.572519,13.000000,-47.458015
0.124756,-0.431885,0.711914,-8.305344,13.404580,-47.091602
0.101318,-0.443604,0.707764,-8.694656,14.229008,-44.694656
0.073486,-0.447754,0.710938,-9.625955,14.793893,-41.473282
0.064453,-0.453857,0.715088,-11.648855,15.839695,-37.877861
0.053955,-0.465088,0.720215,-12.870229,16.801527,-34.412212
0.071533,-0.480469,0.732178,-13.458015,17.259542,-33.595421
0.114014,-0.479004,0.758545,-16.641222,21.374046,-35.190838
0.079102,-0.503906,0.721436,-14.870229,18.198473,-38.816795
0.107422,-0.482422,0.741455,-14.977099,19.679390,-41.854961
0.118408,-0.509033,0.757812,-12.488549,18.923664,-47.000000
0.124023,-0.497314,0.742432,-11.381680,17.625954,-52.763359
0.109619,-0.502441,0.767334,-9.198473,14.801527,-56.587788
0.072021,-0.500732,0.784180,-6.847328,10.297709,-58.007633
0.063477,-0.484619,0.775391,-6.488550,8.854961,-56.503819
0.064697,-0.481689,0.758789,-6.610687,10.091603,-53.328243
0.061279,-0.481934,0.764893,-7.137404,14.442748,-50.007633
0.104980,-0.495117,0.771484,-7.580153,22.740458,-47.229008
0.158691,-0.494629,0.775635,-7.129771,33.190838,-48.099236
0.185791,-0.506592,0.776123,-7.755725,41.755726,-52.015266
0.193604,-0.518066,0.775879,-7.122138,44.045803,-58.702290
0.200439,-0.519775,0.779785,-6.458015,43.740459,-68.358780
0.161133,-0.538330,0.794678,-2.664122,37.946564,-77.648857
0.125732,-0.526367,0.795166,-1.389313,33.297710,-85.183205
0.100586,-0.518311,0.772949,-1.778626,29.900763,-91.122139
0.073975,-0.539551,0.745361,-2.297710,29.709923,-93.259544
0.038818,-0.488281,0.719482,-3.610687,29.290077,-91.618324
0.026367,-0.502197,0.723633,-5.473282,34.564884,-85.656487
0.020996,-0.496338,0.725098,-5.068702,44.000000,-77.343513
0.011475,-0.512207,0.733887,-4.648855,50.122139,-69.923668
-0.010254,-0.502197,0.718262,-6.786260,53.572517,-64.114502
-0.014160,-0.513672,0.718750,-5.847328,52.557251,-60.992367
-0.008057,-0.528320,0.731201,-4.954198,49.389313,-60.847328
0.007080,-0.529785,0.722656,-5.343512,43.755726,-62.603054
-0.019531,-0.521729,0.721680,-6.282443,36.694656,-64.175575
-0.044189,-0.513672,0.691650,-6.564886,28.908398,-62.717556
-0.026855,-0.508545,0.693115,-6.358778,25.213741,-60.427483
0.016846,-0.507812,0.704590,-4.541985,26.381680,-57.938931
0.011719,-0.508789,0.711426,-2.580153,29.595419,-54.114502
-0.013916,-0.511230,0.710693,-2.732824,33.526718,-47.175571
-0.011963,-0.517822,0.713379,-3.312977,41.412212,-40.083969
-0.024902,-0.525635,0.738037,-2.786260,47.435116,-34.374046
-0.049316,-0.535156,0.748779,-1.458015,50.732826,-28.030535
-0.069092,-0.538574,0.739258,-0.534351,49.793892,-23.732824
-0.064697,-0.548828,0.730713,-0.770992,44.862595,-21.053434
-0.044922,-0.552246,0.738770,-1.702290,37.458015,-24.900763
0.030029,-0.535889,0.743896,-2.427481,34.442749,-29.458015
0.098145,-0.530762,0.738281,-1.335878,36.534351,-36.587788
0.147217,-0.518799,0.774658,0.526718,42.755726,-42.900764
0.134033,-0.498291,0.772217,1.099237,47.007633,-47.404579
0.113770,-0.490479,0.750488,-1.450382,50.488548,-51.824429
0.083984,-0.474121,0.745850,-3.427481,51.625954,-54.740459
0.069824,-0.487305,0.746338,-2.435115,48.824429,-58.320610
0.079834,-0.500244,0.733398,-2.862595,47.030533,-62.358780
0.036377,-0.466553,0.719727,-3.717557,42.854961,-64.458015
-0.015381,-0.479004,0.726562,-2.068702,35.618320,-62.809162
-0.039551,-0.484375,0.724854,1.015267,25.717558,-60.648853
0.014404,-0.504639,0.721436,2.343511,22.236641,-62.312977
0.044189,-0.515381,0.770264,1.259542,21.427481,-65.236641
0.027832,-0.503906,0.753662,-0.923664,22.595419,-66.381676
0.000244,-0.502686,0.764404,-0.312977,23.503817,-64.427483
-0.014404,-0.524902,0.773438,0.022901,20.541985,-62.610687
-0.012695,-0.510742,0.764893,-3.618321,16.847328,-60.854961
0.005371,-0.509033,0.762451,-10.877863,18.312977,-58.198475
0.030273,-0.505615,0.791992,-18.748091,22.610687,-57.244274
0.021484,-0.503418,0.781738,-25.893129,26.061069,-56.793892
-0.000488,-0.491943,0.755615,-33.526718,27.580153,-54.137405
-0.035400,-0.486328,0.728271,-38.503819,24.801527,-50.610687
-0.034424,-0.505127,0.751221,-36.396946,24.335878,-47.839695
-0.041504,-0.520020,0.761230,-33.496181,23.824427,-44.816795
-0.050537,-0.519287,0.770996,-29.435114,23.038168,-39.648853
-0.050781,-0.516602,0.752930,-23.870230,23.366413,-31.816793
-0.042725,-0.516357,0.773926,-19.190840,24.977098,-25.938931
-0.005127,-0.518311,0.767090,-16.969465,27.038168,-21.625954
0.018799,-0.520752,0.740479,-15.038168,27.961832,-20.977098
0.026123,-0.521484,0.726074,-11.137404,26.137405,-21.519083
0.028809,-0.524658,0.720703,-8.396947,22.541985,-23.137405
0.022461,-0.520264,0.711914,-8.145039,18.328245,-25.198473
0.032471,-0.504883,0.687500,-10.450381,16.114504,-26.335878
0.028564,-0.506836,0.692139,-12.580153,15.610687,-25.923664
0.026611,-0.495605,0.666992,-14.854961,17.381680,-22.465649
0.053467,-0.498047,0.674805,-18.061069,23.427481,-20.862595
0.063232,-0.489014,0.701660,-15.603053,27.335878,-18.442749
0.066895,-0.506836,0.716064,-10.694656,28.770992,-17.618320
0.063965,-0.508789,0.715820,-8.061069,27.030535,-18.335878
0.056152,-0.508057,0.711426,-7.061069,22.625954,-20.145039
0.060059,-0.508301,0.691162,-5.702290,21.251909,-21.030535
0.070068,-0.520508,0.713623,-2.740458,24.419847,-20.473282
0.034424,-0.533203,0.687988,-1.572519,26.961832,-18.244274
0.032227,-0.538818,0.663086,-5.908397,24.465649,-21.045801
0.012451,-0.551514,0.655518,-6.717557,23.213741,-20.229008
0.024170,-0.560791,0.647705,-6.740458,23.022902,-19.778625
0.034912,-0.574951,0.667236,-8.618320,23.496183,-19.549618
0.041504,-0.572021,0.674561,-12.618320,29.198473,-19.381680
0.051758,-0.570312,0.708008,-12.732824,35.847328,-16.320610
0.042236,-0.562988,0.738037,-9.648855,40.083969,-14.519084
0.041016,-0.570801,0.757324,-7.465649,40.419846,-14.458015
0.057861,-0.572510,0.763428,-5.587786,40.381680,-16.114504
0.068848,-0.582275,0.760254,-0.885496,41.603054,-19.595419
0.058838,-0.592529,0.760742,7.000000,39.305344,-23.694656
0.019531,-0.596680,0.744629,13.297709,32.694656,-28.053434
0.006348,-0.577637,0.690186,14.618320,25.465649,-31.748091
0.013428,-0.551270,0.674805,11.312977,24.129770,-33.175571
0.012207,-0.543945,0.651611,4.809160,28.274809,-33.526718
0.017334,-0.528076,0.626221,-3.236641,33.137405,-31.770992
0.008789,-0.517334,0.595947,-12.564885,34.603054,-31.900763
0.019531,-0.507568,0.600586,-21.343512,37.541985,-32.801525
0.037598,-0.519287,0.603516,-27.702290,39.038166,-34.572517
0.023926,-0.539062,0.624756,-29.122137,40.526718,-37.358780
-0.017578,-0.561768,0.656738,-28.442749,35.351147,-40.167938
-0.027344,-0.567383,0.669922,-25.000000,30.793894,-40.961834
-0.027832,-0.583740,0.728760,-17.564886,30.328245,-40.290077
-0.045410,-0.595703,0.777100,-6.687023,31.893129,-38.030533
-0.061035,-0.604004,0.785889,0.809160,32.465649,-36.206108
-0.069336,-0.588135,0.772461,2.954198,33.488548,-34.763359
-0.073975,-0.608398,0.768311,3.282443,27.908398,-37.206108
-0.034668,-0.600342,0.748535,5.954198,34.854961,-35.793892
-0.046631,-0.598877,0.710693,6.167939,35.557251,-33.389313
-0.052002,-0.594971,0.669678,1.175573,34.091602,-34.954197
-0.044189,-0.579346,0.644043,-3.435115,35.656490,-35.129772
-0.042725,-0.567383,0.618164,-6.198473,38.709923,-34.671757
-0.089600,-0.541992,0.609375,-13.190840,34.717556,-33.358780
-0.087891,-0.529053,0.610352,-19.641222,32.923664,-33.916031
-0.042725,-0.547852,0.712891,-15.824428,39.694656,-28.664122
-0.063721,-0.570557,0.760986,-8.564885,39.862595,-26.183207
-0.059326,-0.581299,0.774414,-6.099236,36.374046,-28.503817
-0.033447,-0.574951,0.774658,-0.748092,36.534351,-29.053434
-0.042236,-0.593994,0.804199,7.587786,39.496181,-28.717558
-0.072510,-0.595215,0.782715,10.671756,38.862595,-28.435114
-0.105469,-0.582520,0.721436,7.083970,32.885498,-30.122137
-0.068115,-0.593506,0.669922,6.526718,33.099236,-30.786259
-0.070312,-0.578857,0.722412,13.175572,36.389313,-27.580153
-0.044434,-0.570557,0.691406,5.755725,40.458015,-25.419847
-0.062256,-0.545166,0.668945,-4.000000,41.763359,-25.114504
-0.078613,-0.595703,0.718018,-2.091603,40.809162,-25.923664
-0.058594,-0.622070,0.773438,3.977099,45.709923,-23.923664
-0.091553,-0.643555,0.773193,7.961832,44.007633,-23.832062
-0.087158,-0.605469,0.765869,14.709924,39.931297,-23.030535
-0.127441,-0.652832,0.775391,21.702290,44.847328,-18.603054
-0.155762,-0.647217,0.767334,27.396946,50.282444,-13.778625
-0.170898,-0.624268,0.737061,28.717558,50.061069,-9.236641
-0.163330,-0.579102,0.691895,30.450382,52.152672,-3.358779
-0.134033,-0.596436,0.696045,34.977100,52.129772,-0.381679
-0.094971,-0.584473,0.695801,39.045803,54.267174,0.786260
-0.045410,-0.563232,0.655762,42.213741,56.297710,1.000000
0.004150,-0.556396,0.643066,44.114502,53.984734,-4.671756
0.016602,-0.547119,0.614014,40.946564,47.099236,-12.732824
-0.020020,-0.536865,0.588623,34.839695,41.580154,-19.778625
-0.050537,-0.508301,0.585938,31.358778,39.885498,-21.282442
-0.087402,-0.493896,0.564697,23.473282,37.648853,-21.007633
-0.094727,-0.493408,0.563232,14.236641,36.702290,-23.030535
-0.111572,-0.472168,0.570312,2.702290,32.641220,-25.908398
-0.113037,-0.485352,0.572754,-8.511451,29.961832,-29.076336
-0.154053,-0.504883,0.561035,-18.770992,24.480917,-32.412212
-0.179199,-0.524414,0.572266,-25.305344,22.419847,-32.877861
-0.170898,-0.528564,0.600342,-27.961832,20.908398,-31.000000
-0.114502,-0.540771,0.646484,-25.015266,26.778625,-30.755726
-0.088623,-0.550049,0.725098,-22.473282,33.419846,-30.297710
-0.148193,-0.538818,0.738770,-21.053434,28.328245,-31.167938
-0.111572,-0.531494,0.760254,-17.503817,25.908398,-32.923664
-0.081055,-0.575195,0.820312,-5.687023,35.969467,-28.748091
-0.178223,-0.575684,0.780518,-2.572519,33.213741,-24.885496
-0.191895,-0.587646,0.739258,-1.396947,22.160305,-25.557251
-0.150391,-0.598633,0.767822,3.152672,21.664122,-23.740458
-0.138916,-0.574219,0.701660,0.702290,21.847328,-24.045801
-0.153320,-0.582031,0.669678,-2.236641,16.541985,-25.145039
-0.174072,-0.583740,0.667969,-4.793893,12.816793,-22.916031
-0.156982,-0.576904,0.621094,-8.206107,13.442748,-23.137405
-0.135010,-0.568604,0.650146,-7.458015,24.557251,-19.251909
-0.161133,-0.593506,0.694824,-3.671756,27.603054,-17.442749
-0.205078,-0.593750,0.686035,1.847328,24.832062,-14.755725
-0.191162,-0.585205,0.692871,8.343512,24.748091,-13.083969
-0.162598,-0.585693,0.718506,14.480916,27.236641,-11.587787
-0.134521,-0.573242,0.719482,18.847328,30.885496,-11.053435
-0.147461,-0.533447,0.667725,17.465649,30.839695,-10.137404
-0.102539,-0.520264,0.627441,11.709924,27.755726,-13.442748
-0.081299,-0.511963,0.552979,4.793893,21.648855,-17.740458
-0.093994,-0.502930,0.542236,0.175573,19.236641,-20.809160
-0.134521,-0.503662,0.554443,-2.862595,16.770992,-21.786259
-0.148193,-0.511230,0.578369,-6.290076,22.297710,-21.221375
-0.154541,-0.541016,0.620117,-5.557252,26.328245,-19.931297
-0.196045,-0.553955,0.664795,-2.496183,27.603054,-18.061069
-0.221680,-0.577148,0.698486,-0.603053,27.343512,-17.496183
-0.187744,-0.580811,0.703613,2.190840,29.595419,-17.480917
-0.161865,-0.575439,0.717285,2.687023,29.465649,-18.709923
-0.135254,-0.557373,0.721436,-2.328244,26.419847,-22.786259
-0.127441,-0.564941,0.697998,-8.839695,20.251909,-27.984734
-0.138916,-0.552246,0.666260,-15.122137,23.541985,-29.167938
-0.191406,-0.530762,0.633057,-25.679390,29.213741,-29.435114
-0.193359,-0.550537,0.630615,-34.282444,25.564886,-30.954199
-0.142578,-0.572021,0.591553,-41.519085,30.832062,-31.664122
-0.221680,-0.628418,0.668457,-34.740459,34.603054,-27.488550
-0.248047,-0.623291,0.679688,-37.000000,37.389313,-24.664122
-0.248779,-0.675293,0.662354,-38.503819,33.312977,-25.312977
-0.227783,-0.678223,0.659668,-35.343510,33.213741,-29.908398
-0.240967,-0.670410,0.661133,-32.190838,33.648853,-30.717558
-0.259033,-0.670654,0.648193,-33.229008,29.908398,-33.633587
-0.279541,-0.668701,0.643555,-29.618320,27.274809,-31.702290
-0.278564,-0.663574,0.668945,-23.557251,25.038168,-28.488550
-0.249023,-0.646973,0.635498,-19.160305,22.244274,-26.832062
-0.249023,-0.643311,0.605713,-14.931297,15.083969,-26.244274
-0.276123,-0.618164,0.581787,-11.358779,6.076336,-24.732824
-0.232910,-0.607666,0.551270,-8.374045,7.351145,-21.435114
-0.240967,-0.630859,0.611816,-5.244275,10.389313,-17.145039
-0.245117,-0.636963,0.599121,-4.396946,7.450382,-15.038168
-0.213135,-0.633301,0.562012,-6.625954,-0.412214,-17.916031
-0.197021,-0.618896,0.598389,-9.175572,-3.916031,-17.450382
-0.167725,-0.621582,0.651611,-9.251908,-0.977099,-16.389313
-0.153076,-0.601562,0.726807,-6.587786,3.534351,-12.183207
-0.137939,-0.597900,0.772217,0.755725,11.160305,-7.984733
-0.144775,-0.597168,0.813477,7.061069,11.366412,-7.160306
-0.103516,-0.584717,0.766113,12.251908,9.145039,-9.656488
-0.128906,-0.586914,0.771973,16.259542,3.061069,-11.206107
-0.113281,-0.572266,0.699463,16.770992,7.312977,-13.916031
-0.129395,-0.556396,0.649414,12.007633,13.488549,-14.312977
-0.114502,-0.516357,0.528320,1.786260,13.580153,-17.282442
-0.120850,-0.514648,0.527832,-7.816794,17.282442,-17.679390
-0.104248,-0.511230,0.521484,-17.549618,19.603054,-19.893129
-0.094971,-0.518555,0.508789,-22.328245,20.519083,-22.351145
-0.086426,-0.555420,0.592529,-20.755726,23.625954,-23.106871
-0.134766,-0.580078,0.640137,-18.709923,24.015266,-22.450382
-0.156982,-0.610107,0.692871,-16.335878,24.564886,-22.351145
-0.173096,-0.649170,0.689453,-9.358779,23.580153,-23.244274
-0.213135,-0.676758,0.684326,-4.000000,22.450382,-20.870230
-0.258057,-0.694336,0.681152,0.213740,21.549618,-16.603054
-0.261475,-0.707520,0.659668,1.442748,19.702290,-15.435115
-0.230225,-0.696777,0.633057,-1.625954,19.221375,-15.687023
-0.221680,-0.681152,0.581543,-3.496183,19.435114,-15.587787
-0.255127,-0.663574,0.545166,-7.099236,15.923664,-11.213740
-0.311523,-0.675049,0.537598,-10.816793,8.740458,-15.419847
-0.270264,-0.646729,0.515381,-12.587787,11.496183,-15.709924
-0.238525,-0.637207,0.556885,-10.022901,21.870230,-14.511451
-0.274902,-0.643799,0.561279,-9.541985,24.251909,-13.702291
-0.254150,-0.662842,0.576416,-8.274809,19.038168,-15.412213
-0.237793,-0.639160,0.561768,-12.992367,10.923664,-14.748092