acce_x,acce_y,acce_z,gyro_x,gyro_y,gyro_z
0.783691,0.072998,0.781738,-5.366412,7.885496,-30.358778
0.777100,0.081055,0.778809,-7.587786,10.923664,-33.236641
0.761475,0.071289,0.785400,-10.152672,12.083969,-36.328243
0.769531,0.063965,0.788818,-11.022901,13.732824,-39.900764
0.745361,0.057373,0.795898,-11.351145,14.137404,-42.900764
0.748291,0.053223,0.800049,-10.549619,15.977099,-44.206108
0.757812,0.054443,0.811523,-10.610687,17.435114,-46.916031
0.773438,0.044189,0.834717,-12.099236,18.366413,-51.465649
0.775146,0.029541,0.807129,-11.809160,19.595419,-55.687023
0.766602,0.032471,0.803711,-9.923664,20.419847,-59.358780
0.782227,0.036621,0.794434,-9.167939,21.427481,-64.633591
0.802979,0.031738,0.776855,-6.496183,23.832062,-70.305344
0.776367,0.036377,0.774658,-5.381680,24.862595,-74.122139
0.756104,0.056152,0.762451,-5.213740,25.908398,-75.694656
0.745117,0.065186,0.744629,-5.351145,29.190840,-75.045799
0.722656,0.066406,0.743896,-7.229008,33.671757,-74.541985
0.697510,0.073975,0.746826,-9.137404,32.091602,-71.030533
0.651123,0.103271,0.737549,-13.015267,30.610687,-66.725189
0.619141,0.125000,0.732666,-18.694656,28.610687,-59.931297
0.598877,0.102783,0.731689,-25.007633,25.488550,-54.694656
0.594238,0.099121,0.733643,-29.320610,21.885496,-50.267174
0.614990,0.089355,0.734375,-32.916031,19.129770,-46.748093
0.649658,0.075195,0.740234,-35.396946,17.664122,-46.839695
0.701904,0.070557,0.728760,-33.633587,19.541985,-47.977100
0.720215,0.060547,0.737793,-35.236641,20.160305,-50.587788
0.720459,0.044189,0.751221,-34.358780,18.099237,-53.893131
0.690918,0.013672,0.767334,-28.076336,14.015267,-58.114502
0.673828,0.007812,0.795654,-21.748091,11.122137,-61.251907
0.643066,0.014648,0.804443,-14.641221,5.190840,-61.694656
0.588135,-0.000732,0.803223,-6.374046,0.709924,-59.526718
0.576416,0.019287,0.787354,-2.603053,-1.206107,-53.778625
0.569824,0.013916,0.750244,0.343511,-3.190840,-47.755726
0.590576,0.044922,0.759033,-3.229008,-3.427481,-43.122139
0.639160,0.040771,0.695068,-5.160306,1.083969,-40.633587
0.662354,0.071533,0.704590,-14.236641,2.534351,-41.274811
0.671631,0.080322,0.661865,-21.221375,4.076336,-43.358780
0.700195,0.072998,0.645264,-30.137405,5.267176,-46.923664
0.707520,0.064941,0.663818,-35.236641,4.274809,-52.145039
0.713867,0.036133,0.650391,-34.755726,3.770992,-58.396946
0.691650,0.024902,0.694580,-34.763359,-0.748092,-61.473282
0.650879,-0.001709,0.705566,-30.572519,-3.480916,-61.473282
0.649658,-0.018066,0.737061,-27.496183,-3.244275,-58.793892
0.666504,-0.037598,0.763184,-21.969465,-2.748092,-56.816795
0.670410,-0.050537,0.756592,-17.870230,-1.015267,-54.732826
0.685547,-0.037354,0.767090,-17.282442,0.641221,-51.427483
0.703857,-0.030762,0.732178,-19.557251,3.625954,-48.778625
0.723877,-0.018311,0.726562,-22.931297,5.503817,-47.717556
0.755615,-0.031982,0.716309,-25.160305,6.694656,-48.312977
0.772217,-0.034424,0.700439,-25.183207,9.412213,-49.847328
0.791992,-0.030518,0.687744,-23.458015,13.320611,-52.526718
0.815674,-0.016846,0.663330,-22.160305,17.297710,-56.664124
0.822510,-0.003662,0.661865,-18.557251,20.763359,-60.366413
0.792725,-0.011719,0.686523,-17.694656,21.770992,-66.564888
0.783447,-0.025391,0.685059,-10.022901,21.717558,-66.938934
0.780518,-0.019531,0.693359,-5.839694,22.938931,-69.106873
0.759521,-0.011963,0.724609,-3.877863,20.083969,-69.610687
0.722656,-0.010742,0.709717,-4.702290,15.923664,-68.106873
0.735840,0.013672,0.697998,-7.106870,15.389313,-63.946564
0.761475,-0.001221,0.696289,-9.358779,20.671755,-60.473282
0.793213,0.020752,0.701416,-15.328244,21.404581,-57.503819
0.835449,0.028076,0.680908,-20.633587,26.160305,-53.832062
0.859863,0.011719,0.680908,-22.809160,31.152672,-52.328243
0.885254,-0.002686,0.719238,-21.496183,35.725189,-52.061069
0.846680,-0.029053,0.754150,-19.694656,36.122139,-52.854961
0.806152,-0.031494,0.779297,-18.435114,34.740459,-52.137405
0.796143,-0.046387,0.781250,-13.954199,33.900764,-52.251907
0.808105,-0.054199,0.792236,-7.679389,36.145039,-51.961834
0.811523,-0.067627,0.790283,-4.450382,35.595421,-53.595421
0.834229,-0.066406,0.766357,-0.297710,37.832062,-55.526718
0.836670,-0.056885,0.718506,1.320611,36.274811,-60.526718
0.827637,-0.023926,0.699463,0.984733,32.091602,-65.603050
0.839355,-0.027832,0.675049,3.442748,30.664122,-71.770996
0.812500,0.008301,0.685547,4.488550,29.129770,-74.519081
0.806396,0.011963,0.699219,3.396947,31.725191,-72.458015
0.808350,0.019287,0.716064,2.435115,33.763359,-72.251907
0.787598,0.053467,0.713867,2.534351,30.618320,-70.893127
0.755615,0.069336,0.704834,0.358779,26.595419,-66.610687
0.774170,0.060547,0.755371,-6.862596,29.786259,-58.656490
0.798828,0.030762,0.790771,-13.748092,35.473282,-52.832062
0.768799,-0.004150,0.797363,-16.824427,40.435116,-48.419846
0.755615,-0.026123,0.789551,-17.419847,41.045803,-45.480915
0.752686,-0.055664,0.767090,-14.786260,41.564884,-46.465649
0.758545,-0.072021,0.727539,-11.213740,40.526718,-49.137405
0.764160,-0.056152,0.699707,-9.564885,36.053436,-51.083969
0.781982,-0.065918,0.662842,-7.122138,32.595421,-52.854961
0.779785,-0.047119,0.658203,-6.450382,30.458015,-52.992367
0.771484,-0.031006,0.646729,-8.618320,31.534351,-50.786259
0.816895,-0.008545,0.660400,-10.885496,41.145039,-45.442749
0.806641,0.018066,0.679199,-15.893129,49.000000,-39.832062
0.768311,0.024902,0.665283,-17.977098,53.083969,-35.992367
0.792236,0.019531,0.661621,-20.229008,56.145039,-34.435116
0.791504,0.015869,0.643799,-19.664122,55.404579,-36.877861
0.819580,0.028076,0.629395,-18.824427,56.053436,-39.610687
0.799072,0.031738,0.640137,-17.870230,52.412212,-43.312977
0.782471,0.021729,0.639893,-16.458015,49.687023,-44.992367
0.810547,0.027344,0.654053,-14.282443,47.992367,-47.000000
0.820068,0.024658,0.644287,-12.450381,46.992367,-47.312977
0.806885,0.011230,0.670654,-12.610687,49.763359,-45.679390
0.822021,-0.037598,0.650391,-11.633588,46.595421,-52.473282
0.807373,-0.009521,0.673584,-13.603053,48.076336,-52.190838
0.766357,-0.032959,0.655518,-5.854962,47.404579,-52.740459
0.756348,-0.005859,0.675293,-9.786260,46.427483,-51.175571
0.732178,-0.006348,0.638672,-14.229008,43.916031,-52.198475
0.733643,-0.007568,0.668945,-15.167939,43.320610,-51.473282
0.704590,-0.011475,0.703613,-17.648855,40.267174,-49.435116
0.673828,-0.023926,0.690674,-21.709923,36.740459,-47.709923
0.690430,-0.026855,0.679199,-26.221375,35.496181,-47.465649
0.683105,-0.017822,0.648926,-30.091602,33.534351,-48.580154
0.678223,-0.025635,0.630859,-29.839695,35.267174,-48.977100
0.689453,-0.040039,0.691406,-31.335878,37.160305,-50.213741
0.658936,-0.071533,0.708496,-28.022902,34.206108,-51.526718
0.660889,-0.089600,0.710938,-22.961832,32.839695,-53.244274
0.682129,-0.094238,0.751221,-15.671756,33.534351,-53.541985
0.651367,-0.099365,0.745361,-11.145039,28.587786,-51.564884
0.639648,-0.085938,0.710938,-9.992367,24.610687,-49.312977
0.665527,-0.079834,0.707764,-10.007633,27.381680,-48.358780
0.649170,-0.069336,0.725342,-10.000000,28.022902,-47.038166
0.624756,-0.062256,0.700684,-12.183207,29.847328,-45.396946
0.635254,-0.051025,0.673096,-15.854961,33.389313,-44.083969
0.599854,-0.040771,0.673340,-17.412214,32.412212,-41.946564
0.628174,-0.040283,0.690674,-17.129770,37.038166,-39.992367
0.626465,-0.062012,0.751221,-14.213740,42.137405,-38.396946
0.616211,-0.066162,0.753662,-10.404580,42.786259,-36.427483
0.612061,-0.066650,0.781006,-5.297710,40.564884,-35.610687
0.622070,-0.085938,0.791260,1.175573,37.290077,-35.198475
0.601807,-0.096436,0.780029,9.465649,32.083969,-34.297710
0.611572,-0.119141,0.805420,20.549618,29.061069,-36.061069
0.630371,-0.160156,0.817139,31.793894,30.923664,-39.488548
0.621582,-0.185791,0.832031,44.847328,36.519085,-41.977100
0.593994,-0.180420,0.842773,49.328243,36.412212,-42.694656
0.597168,-0.136719,0.750000,47.076336,38.679390,-41.725189
0.611816,-0.085693,0.711670,43.458015,42.916031,-39.824429
0.623047,-0.061035,0.699707,36.206108,45.396946,-37.679390
0.633545,-0.009521,0.640137,27.061069,46.129772,-35.793892
0.641846,0.025635,0.603760,18.954199,45.610687,-34.740459
0.670654,0.020996,0.660400,11.900764,52.152672,-27.946566
0.670166,0.039307,0.673828,3.442748,52.679390,-24.305344
0.652832,0.025635,0.691406,2.244275,44.282444,-25.770992
0.702393,0.077637,0.708252,-2.526718,43.633587,-23.832062
0.687744,0.035645,0.748047,-3.870229,38.633587,-24.145039
0.641113,0.028564,0.694824,4.183206,37.267174,-3.786260
0.601562,0.008789,0.697998,2.954198,29.053434,-26.152672
0.666504,-0.013428,0.746582,7.488550,30.061069,-24.801527
0.647461,-0.015381,0.743408,6.503817,26.282442,-24.022902
0.691650,0.036133,0.677979,3.488550,27.000000,-21.404581
0.699707,0.052246,0.672852,-0.335878,23.160305,-23.580153
0.726562,0.075684,0.660400,-3.503817,23.465649,-22.755726
0.741211,0.084717,0.642822,-5.992366,22.923664,-24.641222
0.757324,0.081543,0.682617,-7.725191,23.488550,-26.671755
0.747070,0.080322,0.715820,-9.198473,21.557251,-28.320610
0.731934,0.037354,0.744385,-10.992367,20.229008,-31.183207
0.700195,0.015137,0.772949,-1.809160,19.335878,-32.152672
0.699463,0.009766,0.769287,0.625954,20.473282,-33.473282
0.653320,0.007080,0.738281,4.480916,19.030535,-33.358780
0.652344,0.031006,0.691650,6.099236,17.091602,-33.748093
0.630859,0.044678,0.654785,3.374046,14.847328,-32.290077
0.629639,0.085205,0.611816,-4.458015,12.961832,-29.129770
0.639160,0.091797,0.577393,-15.923664,8.251908,-29.984734
0.619873,0.080322,0.573975,-24.389313,5.312977,-29.519083
0.635742,0.051758,0.644043,-30.175573,8.931297,-29.458015
0.601562,0.007568,0.699219,-31.381680,11.557252,-28.854961
0.568115,-0.014160,0.734863,-29.961832,9.938931,-25.572519
0.572266,-0.028809,0.756836,-28.206106,8.274809,-22.580153
0.606201,-0.037598,0.768066,-23.312977,10.396947,-21.366413
0.604248,-0.039551,0.777832,-18.366413,8.435115,-20.229008
0.606445,-0.030762,0.723389,-13.740458,6.725191,-20.229008
0.641602,0.001465,0.708008,-9.572519,5.320611,-21.053434
0.628174,0.003174,0.682617,-6.419847,1.847328,-23.305344
0.615723,0.026611,0.654541,-4.625954,-1.740458,-23.145039
0.655762,0.042236,0.628662,-2.541985,-7.190840,-25.091602
0.684326,0.018311,0.653076,-0.450382,-13.908397,-32.091602
0.729004,-0.006104,0.685791,2.106870,-17.610687,-39.435116
0.722168,-0.008789,0.710693,0.290076,-22.931297,-45.564884
0.822266,0.010498,0.680420,-13.893129,-6.900764,-46.511452
0.766846,0.020508,0.693848,-26.206106,8.885496,-40.763359
0.630127,0.002441,0.708008,-31.770992,13.328244,-33.641220
0.619385,0.018311,0.715576,-39.404579,15.290076,-29.045801
0.663330,0.013184,0.750977,-44.984734,18.511450,-24.488550
0.677246,-0.014160,0.738770,-44.290077,24.839695,-22.656488
0.638428,-0.041260,0.754639,-39.969467,16.755726,-25.206106
0.638672,-0.054199,0.767822,-33.038166,10.549619,-26.603054
0.647461,-0.083740,0.775635,-24.274809,7.557252,-30.290077
0.634033,-0.062256,0.778076,-17.603054,3.190840,-30.687023
0.625244,-0.067627,0.753662,-15.595420,-1.534351,-31.320610
0.673828,-0.052490,0.753906,-14.167939,4.366412,-30.465649
0.675537,-0.040527,0.738525,-13.396947,11.259542,-28.160305
0.652588,-0.022217,0.729736,-17.022902,12.961832,-25.809160
0.662842,-0.030762,0.704590,-21.381680,15.633588,-25.274809
0.702637,-0.038086,0.696045,-23.015266,22.030535,-24.549618
0.656006,-0.059570,0.760498,-23.450382,23.618320,-24.114504
0.609375,-0.082520,0.782471,-20.251909,19.916031,-22.877863
0.623535,-0.108887,0.786377,-13.618320,18.854961,-22.106871
0.631836,-0.115234,0.762207,-8.511451,16.580153,-24.526718
0.685303,-0.125000,0.784668,-0.511450,22.610687,-25.145039
0.631348,-0.128906,0.794189,5.297710,21.709923,-23.129770
0.615723,-0.110596,0.720703,5.748092,17.923664,-19.595419
0.652100,-0.100342,0.681396,4.381680,20.007633,-19.312977
0.669678,-0.084717,0.649170,3.610687,25.061069,-19.541985
0.638184,-0.074707,0.631104,1.709924,23.167938,-18.641222
0.598145,-0.059570,0.597900,-2.396947,17.030535,-16.572519
0.582764,-0.070068,0.600098,-5.770992,10.221375,-16.213741
0.601318,-0.066650,0.645996,-8.068703,10.748092,-14.198473
0.622070,-0.077393,0.673828,-7.122138,15.687023,-11.824428
0.620117,-0.098877,0.678223,-6.335878,14.877863,-9.679389
0.669678,-0.099121,0.673828,-2.618321,17.992367,-10.076336
0.679688,-0.104492,0.713623,1.725191,18.045801,-12.312977
0.669922,-0.093506,0.729980,5.305344,16.854961,-13.083969
0.649414,-0.108154,0.708008,10.167939,12.748092,-14.183207
0.659912,-0.103027,0.750488,18.061069,13.076336,-15.221375
0.657227,-0.096680,0.769531,24.786259,14.480916,-14.954199
0.636719,-0.079590,0.749756,28.977098,11.854961,-13.916031
0.609131,-0.084229,0.731689,34.061069,7.679389,-11.595420
0.605713,-0.074463,0.720703,37.335876,3.488550,-7.900764
0.586670,-0.062988,0.696777,38.717556,-1.152672,-3.748092
0.643311,-0.078857,0.669678,38.198475,0.946565,-3.167939
0.718506,-0.087402,0.689453,38.343510,10.480916,-5.305344
0.700928,-0.113037,0.696045,42.053436,11.038168,-10.259542
0.677979,-0.114746,0.703125,43.824429,12.137404,-13.587787
0.628418,-0.098633,0.694336,38.893131,9.702291,-12.412213
0.635742,-0.072510,0.675781,30.763359,13.435115,-8.900764
0.676758,-0.057617,0.672607,23.412214,28.526718,-3.511450
0.591553,-0.032227,0.714600,16.954199,31.961832,3.236641
0.623535,0.011719,0.697510,7.908397,33.175571,7.633588
0.621094,0.018555,0.648193,6.732824,33.167938,7.633588
0.648682,0.055908,0.677979,2.526718,30.587786,5.015267
0.661133,0.073486,0.687256,6.343512,34.900764,-2.923664
0.687012,0.110107,0.715820,7.969466,34.045803,-4.282443
0.694824,0.130859,0.780273,12.167939,31.251909,-4.297710
0.687012,0.115723,0.804443,16.458015,27.282442,-4.977099
0.695557,0.096436,0.793457,16.916031,22.091602,-8.068703
0.721924,0.094727,0.768311,17.061069,19.717558,-13.541985
0.661865,0.053711,0.734863,21.022902,15.427481,-17.740458
0.580322,0.038818,0.694580,18.183207,8.503817,-17.511450
0.573486,0.058105,0.651855,12.786260,10.687023,-12.526717
0.629150,0.079102,0.656494,8.923664,22.343512,-5.916030
0.632324,0.093994,0.640869,4.541985,26.068703,-1.954198
0.623291,0.106934,0.625488,-2.900763,22.297710,-2.351145
0.629395,0.106934,0.644043,-10.618320,14.305344,-3.450382
0.633789,0.097900,0.659912,-16.465649,6.603054,-4.175572
0.623779,0.085449,0.683594,-18.267176,3.801527,-5.030534
0.604004,0.069336,0.715820,-18.404581,-4.389313,-7.175572
0.641113,0.041748,0.741699,-12.167939,-4.251908,-10.381680
0.675049,0.022949,0.812500,-4.702290,3.351145,-11.297709
0.617920,0.013428,0.799072,-4.091603,-1.412214,-12.641221
0.595215,-0.003418,0.776123,-3.198473,-8.671756,-14.229008
0.581787,-0.022705,0.775635,0.648855,-10.259542,-13.465649
0.548584,-0.055664,0.799561,1.625954,-10.801527,-10.916031
0.494629,-0.067383,0.754883,-5.351145,-17.015266,-7.519084
0.495361,-0.028076,0.666260,-12.435115,-22.007633,-3.916031
0.555908,-0.003662,0.646484,-18.923664,-21.137405,-2.664122
0.579102,0.032959,0.619141,-29.625954,-21.694656,-1.603053
0.561279,0.053711,0.593994,-41.969467,-25.870230,-1.450382
0.627930,0.041016,0.652100,-43.625954,-16.534351,-3.045802
0.633301,0.004395,0.815918,-39.061069,0.427481,-1.969466
0.578613,-0.005371,0.843262,-35.030533,9.022901,-0.465649
0.554932,0.000977,0.815430,-33.412212,10.732824,-1.496183
0.580811,-0.010010,0.875732,-18.961832,5.160306,-5.511450
0.586182,-0.032959,0.875977,-4.396946,2.786260,-7.511450
0.534668,-0.008301,0.761475,-4.343512,-7.480916,-8.366412
0.554199,0.024170,0.698975,-6.809160,-13.114504,-6.167939
0.621338,0.060547,0.713379,-9.671756,-11.045801,-3.870229
0.627686,0.072510,0.687012,-16.389313,-10.931297,-3.839695
0.642822,0.075928,0.627197,-23.603054,-5.534351,-2.595420
0.614746,0.040039,0.645020,-26.832062,-3.488550,-2.366412
0.594482,-0.007568,0.686035,-25.992367,-2.603053,-2.656489
0.621826,-0.021240,0.737793,-20.770992,6.709924,-0.954198
0.628906,-0.048828,0.814697,-6.580153,14.610687,1.061069
0.633789,-0.051514,0.795166,1.229008,13.030535,1.160305
0.642090,-0.039551,0.739502,5.511450,3.717557,-2.564885
0.628906,-0.048828,0.707275,10.244275,-2.419847,-5.809160
0.597168,-0.033936,0.704346,9.297709,-7.793893,-5.969466
0.548340,-0.066162,0.666504,6.381680,-10.687023,-4.465649
0.494141,-0.080078,0.625732,5.068702,-13.458015,-0.305344
0.455078,-0.080566,0.603027,2.030534,-13.251908,7.496183
0.530029,-0.016113,0.621338,-7.213740,-3.083969,17.091602
0.677979,0.019531,0.675049,-14.381680,10.618320,21.358778
0.780273,0.047852,0.765869,-17.305344,15.221375,20.083969
0.844482,0.038818,0.835938,-17.671755,21.519083,14.541985
0.854492,0.004639,0.911621,-12.213740,24.106871,7.877862