acce_x,acce_y,acce_z,gyro_x,gyro_y,gyro_z
0.729248,0.137451,0.786621,-2.389313,-0.618321,-27.412214
0.718262,0.135986,0.784424,-2.526718,-0.137405,-27.465649
0.726562,0.136719,0.778076,-3.274809,0.916031,-27.595419
0.736328,0.141846,0.777588,-4.366412,2.442748,-28.267176
0.723877,0.155273,0.770264,-5.969466,4.045802,-27.946566
0.725342,0.164062,0.776611,-9.007633,5.801527,-26.702290
0.729492,0.157959,0.768799,-10.938931,7.885496,-26.305344
0.744141,0.162354,0.764404,-11.664123,10.267176,-27.595419
0.750977,0.154053,0.758057,-10.061069,9.236641,-30.007633
0.754639,0.161865,0.768555,-10.305344,9.488549,-33.503819
0.780029,0.152344,0.769043,-10.572519,8.717557,-39.717556
0.796387,0.147949,0.764648,-11.549619,7.900764,-45.664124
0.764648,0.151855,0.753174,-11.435115,6.534351,-48.870228
0.739990,0.155029,0.763184,-14.175572,10.908397,-47.396946
0.702148,0.118164,0.816895,-9.511451,4.465649,-45.862595
0.684326,0.132568,0.767334,-6.786260,5.740458,-41.877861
0.657471,0.141602,0.830811,-8.618320,4.404580,-35.687023
0.647217,0.139648,0.819092,-9.152672,6.893130,-29.274809
0.667480,0.132812,0.832520,-8.816793,11.916031,-24.183207
0.676758,0.123291,0.817627,-7.297710,14.931297,-21.755726
0.681396,0.134277,0.799072,-6.458015,16.564886,-19.603054
0.683838,0.139648,0.776123,-7.412214,15.564885,-18.007633
0.688965,0.154785,0.756104,-8.793893,13.740458,-17.236641
0.700195,0.157959,0.756104,-9.816793,11.274809,-17.305344
0.704834,0.153320,0.760010,-10.938931,9.206107,-18.022902
0.705078,0.163574,0.741699,-10.854961,8.137404,-17.900763
0.689697,0.156250,0.776611,-9.992367,8.152672,-16.549618
0.673340,0.152100,0.788086,-8.763359,8.641221,-14.045801
0.668457,0.145264,0.793213,-7.396946,7.374046,-11.022901
0.658936,0.149414,0.790283,-7.595420,6.000000,-8.038168
0.678223,0.141846,0.785889,-7.061069,5.633588,-6.526718
0.719238,0.130371,0.797607,-5.725191,6.076336,-6.167939
0.721436,0.124512,0.799805,-4.709924,5.725191,-6.786260
0.715332,0.133057,0.793457,-4.374046,4.290076,-5.946565
0.711670,0.130615,0.797363,-4.465649,3.610687,-5.519084
0.746094,0.125000,0.809570,-4.000000,3.099237,-7.519084
0.792969,0.118896,0.808594,-3.145038,1.458015,-12.267176
0.798096,0.118164,0.808594,-2.442748,0.900763,-17.190840
0.804688,0.115479,0.808594,-1.877863,1.206107,-22.343512
0.811768,0.122070,0.797607,-0.435115,3.435115,-26.198473
0.786621,0.118652,0.822266,0.633588,5.977099,-28.526718
0.758789,0.127197,0.809814,0.748092,6.312977,-29.679390
0.724609,0.130371,0.793701,-0.167939,4.503817,-29.832062
0.726074,0.136963,0.781738,-1.755725,6.977099,-28.763359
0.728271,0.127441,0.768311,-3.335878,5.992366,-28.992367
0.755615,0.119873,0.790771,-5.450382,6.465649,-30.702290
0.771729,0.126221,0.776123,-7.977099,6.396946,-33.564884
0.777832,0.124512,0.779541,-10.480916,5.435114,-36.763359
0.794922,0.118408,0.782715,-12.664123,4.748092,-42.030533
0.812256,0.113281,0.777832,-13.511451,4.992366,-47.335876
0.800049,0.108154,0.778564,-13.633588,5.122138,-50.893131
0.793457,0.103760,0.775635,-13.709924,5.259542,-54.465649
0.840088,0.094727,0.786133,-14.877863,7.251908,-59.335876
0.887207,0.085449,0.792236,-18.244274,11.137404,-67.717560
0.878906,0.072998,0.791260,-20.755726,12.068703,-76.366409
0.856445,0.076416,0.774414,-23.778625,11.129771,-84.312981
0.799072,0.080078,0.774658,-27.045801,8.320611,-89.290077
0.721436,0.077637,0.784668,-28.282442,2.977099,-89.633591
0.636963,0.076904,0.793945,-26.305344,-2.740458,-85.206108
0.599365,0.064453,0.826172,-21.374046,-7.519084,-79.038170
0.597656,0.064453,0.858643,-15.038168,-10.694656,-71.694656
0.664062,0.050049,0.847656,-10.083969,-9.366412,-66.351143
0.724854,0.054932,0.852051,-7.000000,-6.793893,-63.190838
0.753418,0.060059,0.841064,-6.061069,-7.152672,-62.763359
0.774658,0.068604,0.815186,-6.725191,-7.847328,-65.297707
0.794189,0.094727,0.790039,-7.221374,-10.122137,-69.419846
0.777100,0.112549,0.768799,-8.259542,-12.564885,-71.679390
0.819336,0.119873,0.777344,-11.206107,-7.946565,-70.732826
0.807129,0.133545,0.788574,-12.061069,-3.122137,-69.000000
0.768799,0.129883,0.781250,-11.381680,-0.511450,-65.519081
0.769287,0.148438,0.769531,-11.305344,-1.488550,-61.061069
0.764648,0.148193,0.761475,-11.595420,-3.175573,-57.068703
0.797363,0.143799,0.767090,-11.580153,-2.541985,-52.885498
0.802490,0.141357,0.765869,-11.267176,-2.396947,-50.145039
0.829590,0.131836,0.784180,-10.931297,0.022901,-49.450382
0.845215,0.132080,0.772705,-10.961832,1.702290,-52.137405
0.835938,0.121582,0.776367,-9.297709,0.946565,-55.167938
0.824951,0.126465,0.758301,-8.160305,0.664122,-57.030533
0.825439,0.130859,0.769531,-6.725191,1.847328,-55.496181
0.812500,0.133057,0.784912,-5.656488,4.045802,-52.877861
0.823730,0.135986,0.771240,-5.335878,5.992366,-50.572517
0.829834,0.144531,0.752686,-5.061069,8.992367,-48.297710
0.824219,0.155518,0.752197,-4.931298,10.839695,-46.083969
0.853271,0.151123,0.755371,-5.442748,14.442748,-42.412212
0.863281,0.138916,0.759277,-6.816794,17.213741,-40.763359
0.872314,0.145264,0.753418,-6.297710,28.435114,-37.213741
0.823486,0.147217,0.753174,-7.534351,14.732824,-44.381680
0.871094,0.144775,0.755859,-5.122138,12.351145,-46.312977
0.868164,0.134766,0.753174,-3.885496,11.267176,-48.221375
0.868408,0.130615,0.763184,-1.862595,10.083969,-49.000000
0.865723,0.129639,0.744629,-0.282443,9.229008,-49.480915
0.860107,0.126221,0.725830,0.580153,9.114504,-48.938931
0.845947,0.111328,0.741211,0.099237,8.259542,-48.832062
0.861572,0.125488,0.740479,-1.717557,9.870229,-47.488548
0.853271,0.128174,0.720459,-4.061069,11.015267,-44.770992
0.853516,0.144287,0.729492,-6.190840,13.870229,-41.221375
0.850098,0.144775,0.734375,-8.809160,16.496183,-38.916031
0.835205,0.131348,0.720703,-11.610687,15.267176,-38.389313
0.853271,0.139160,0.716797,-12.679389,16.251909,-37.725189
0.864502,0.129883,0.735840,-13.442748,15.076336,-39.312977
0.875488,0.136963,0.724609,-14.045801,15.358779,-40.969467
0.890869,0.142334,0.711426,-14.259542,16.290077,-42.167938
0.889160,0.149170,0.725586,-14.618320,17.633587,-42.931297
0.892578,0.145264,0.752197,-15.473283,19.648855,-42.847328
0.902100,0.149170,0.751953,-15.206107,20.755726,-44.312977
0.899414,0.147461,0.769287,-14.175572,21.801527,-45.648853
0.883545,0.140869,0.776123,-13.931297,19.259542,-47.503819
0.872070,0.149902,0.763428,-15.198473,17.320610,-47.908398
0.867676,0.142578,0.760010,-16.809160,14.587787,-48.374046
0.864258,0.138184,0.755371,-17.038168,14.312977,-48.549618
0.861572,0.136719,0.746094,-18.076336,15.068703,-48.427483
0.842285,0.132324,0.718750,-20.015266,14.687023,-47.557251
0.827881,0.127441,0.724854,-21.412214,14.129771,-47.435116
0.841553,0.122559,0.715576,-20.496183,15.015267,-47.801525
0.835693,0.124512,0.759521,-19.984734,16.625954,-47.893131
0.806396,0.116943,0.784424,-17.839695,15.557252,-47.587788
0.826416,0.124023,0.792725,-16.022902,15.580153,-46.656490
0.841309,0.128906,0.791260,-14.870229,16.450382,-45.351147
0.845215,0.131104,0.802002,-14.694656,15.167939,-46.305344
0.826660,0.126953,0.790283,-14.519084,11.213740,-46.374046
0.823242,0.127197,0.782227,-15.564885,9.015267,-45.503819
0.833984,0.121338,0.791260,-17.969465,9.282443,-44.854961
0.842285,0.124268,0.772705,-19.282442,10.167939,-44.465649
0.841553,0.126953,0.753418,-21.755726,11.206107,-42.954197
0.832520,0.107422,0.762451,-22.648855,12.435115,-41.961834
0.858643,0.109375,0.748047,-24.679390,14.412213,-40.603054
0.860352,0.099854,0.742920,-24.969465,14.618320,-40.511452
0.857422,0.078369,0.761230,-22.900763,14.183207,-41.465649
0.847656,0.058838,0.788086,-19.045801,13.374045,-42.847328
0.846436,0.039551,0.816650,-15.160305,10.809160,-45.366413
0.833252,0.040039,0.797852,-12.450381,8.419847,-47.458015
0.823486,0.058105,0.779297,-10.282443,6.488550,-47.770992
0.818115,0.095703,0.749756,-10.229008,12.282443,-47.793892
0.803711,0.098145,0.634277,-16.320610,10.671756,-46.435116
0.855225,0.187012,0.646973,-25.175573,14.320611,-43.717556
0.850586,0.170898,0.655029,-32.954197,11.083969,-43.183205
0.919189,0.183350,0.649414,-39.961834,16.282442,-43.702290
0.943604,0.170654,0.672119,-39.366413,27.580153,-37.778625
0.886475,0.135742,0.734131,-40.290077,24.763359,-46.900764
0.839844,0.114014,0.733154,-40.938931,21.511450,-46.687023
0.838867,0.094238,0.708984,-41.328243,13.366412,-49.961834
0.849609,0.066895,0.723633,-40.450382,8.664123,-52.809162
0.854492,0.080078,0.749023,-40.977100,5.404580,-51.931297
0.832520,0.068604,0.745117,-41.488548,5.335878,-49.625954
0.868652,0.071777,0.771729,-42.648853,12.496183,-43.587788
0.921875,0.093994,0.788818,-45.778625,19.809160,-39.145039
0.936035,0.078125,0.760742,-49.801525,20.549618,-39.183205
0.984863,0.070312,0.776855,-49.763359,22.770992,-41.801525
0.996582,0.042969,0.800293,-46.931297,23.282442,-46.007633
0.973633,0.019775,0.786865,-44.961834,20.145039,-50.854961
0.931152,-0.020996,0.803467,-42.824429,16.809160,-54.351147
0.915771,-0.020996,0.804688,-39.335876,20.312977,-53.259541
0.874268,-0.015381,0.776367,-35.671757,21.778625,-50.870228
0.848877,-0.023926,0.743652,-34.595421,21.221375,-49.541985
0.841797,-0.021484,0.717285,-34.190838,20.977098,-47.824429
0.859863,-0.007812,0.732910,-33.045803,21.725191,-43.938931
0.880615,-0.038574,0.765137,-29.832062,23.435114,-42.916031
0.871582,-0.035400,0.762451,-27.763359,22.832062,-42.374046
0.869629,-0.039795,0.766846,-25.511450,22.175573,-41.541985
0.859863,-0.026123,0.752930,-22.664122,23.870230,-40.274811
0.836670,-0.014893,0.696533,-22.450382,22.839695,-38.297710
0.838867,0.019531,0.648682,-24.595419,23.290077,-35.809162
0.844727,0.027588,0.625732,-26.297710,22.335878,-34.198475
0.838623,0.042236,0.636963,-28.435114,24.251909,-32.511452
0.862793,0.036133,0.630615,-30.770992,25.641222,-31.244274
0.883301,0.040039,0.626221,-31.977098,27.519083,-31.541985
0.877197,0.018555,0.636475,-31.763359,27.427481,-32.908398
0.869629,0.002197,0.670654,-30.839695,27.984734,-33.114502
0.854248,0.008789,0.655273,-30.129770,26.625954,-33.755726
0.840088,0.004639,0.648193,-29.709923,23.770992,-33.213741
0.871338,-0.024414,0.647949,-30.549618,36.381680,-32.709923
0.815918,-0.043457,0.654541,-26.511450,36.404579,-33.282444
0.798828,0.027588,0.635498,-34.160305,25.877863,-30.946566
0.852539,0.016602,0.610352,-39.358780,25.786259,-29.251909
0.852051,0.001953,0.637451,-39.961834,29.030535,-29.290077
0.877197,-0.011963,0.657471,-35.709923,37.541985,-33.167938
0.861816,-0.059814,0.670654,-27.541985,35.946564,-37.938931
0.797607,-0.057861,0.720703,-26.656488,23.557251,-36.442749
0.763672,-0.089600,0.725830,-25.061069,9.045801,-36.900764
0.780518,-0.085205,0.700684,-24.526718,3.137405,-36.236641
0.773193,-0.089111,0.697754,-22.946566,0.564885,-35.389313
0.755371,-0.079834,0.689209,-19.931297,-1.274809,-33.045803
0.736572,-0.083252,0.694824,-20.251909,-3.076336,-30.259542
0.783691,-0.046387,0.673828,-22.916031,-0.274809,-26.984734
0.813477,-0.038574,0.701904,-24.312977,7.122138,-24.160305
0.791260,-0.026367,0.696045,-24.893129,8.259542,-22.099237
0.787109,-0.031250,0.704834,-24.900763,5.702290,-22.511450
0.835449,-0.030762,0.713867,-22.343512,9.816793,-23.198473
0.838623,-0.036865,0.732910,-14.587787,11.679389,-23.229008
0.836914,-0.052490,0.759766,-8.702291,11.038168,-23.832062
0.843994,-0.044922,0.742920,-5.083970,6.442748,-25.564886
0.861328,-0.041016,0.731201,-2.000000,2.603053,-26.625954
0.863770,-0.029541,0.717285,-0.923664,0.412214,-26.488550
0.858154,-0.033203,0.762207,0.190840,4.870229,-24.961832
0.846924,-0.014160,0.711670,-3.664122,9.167939,-22.984734
0.857178,0.009277,0.645020,-10.015267,9.229008,-22.832062
0.878174,0.003906,0.629883,-15.885496,10.328244,-24.916031
0.865967,0.004883,0.619873,-22.816793,10.366412,-26.435114
0.835938,-0.001953,0.591553,-28.633587,7.328244,-27.526718
0.833008,-0.011963,0.612793,-29.328245,7.000000,-25.877863
0.804932,-0.032715,0.673584,-26.114504,5.786260,-23.251909
0.822021,-0.021240,0.664307,-23.061069,2.908397,-18.786259
0.872070,-0.004395,0.672852,-22.648855,4.480916,-18.793894
0.896729,-0.018311,0.664062,-21.236641,0.740458,-18.793894
0.926270,-0.012939,0.690674,-18.488550,-0.603053,-19.503817
0.920654,-0.052490,0.717041,-17.343512,-2.259542,-22.625954
0.927246,-0.016113,0.689941,-18.030535,0.061069,-23.496183
0.916748,-0.009521,0.707764,-20.007633,2.290076,-23.381680
0.867188,-0.009766,0.728516,-21.664122,3.007634,-22.389313
0.864746,0.006104,0.720215,-23.335878,6.687023,-20.007633
0.883301,0.022705,0.691162,-24.885496,8.480916,-18.328245
0.888184,0.017090,0.658447,-26.931297,4.106870,-19.900763
0.888916,-0.002441,0.670654,-27.755726,-2.732824,-22.801527
0.895752,-0.017578,0.666504,-27.198473,-7.244275,-24.274809
0.948242,-0.041748,0.675049,-26.404581,-4.190840,-26.572519
0.944580,-0.048340,0.694824,-24.641222,-1.213740,-26.244274
0.910156,-0.059814,0.708496,-24.038168,-3.488550,-25.786259
0.960449,-0.068848,0.708740,-23.366413,1.526718,-25.587786
0.958496,-0.084473,0.732910,-21.038168,4.755725,-25.534351
0.936279,-0.091553,0.718262,-17.083969,4.412214,-27.167938
0.947754,-0.102783,0.735840,-9.671756,9.412213,-28.603054
0.932373,-0.111084,0.721191,-4.984733,11.595420,-28.671755
0.899170,-0.087158,0.650635,-4.900764,7.297710,-29.480917
0.893555,-0.077637,0.594727,-4.312977,2.595420,-29.351145
0.857422,-0.052002,0.586670,-6.297710,-3.572519,-26.984734
0.863037,-0.021973,0.569336,-11.961832,-8.358779,-24.740458
0.903320,-0.003906,0.551025,-20.786259,-4.809160,-21.503817
0.953857,-0.015381,0.586670,-24.198473,9.290076,-19.709923
0.908936,-0.025391,0.608643,-26.679390,13.343512,-18.526718
0.883301,-0.017578,0.580322,-30.916031,9.824428,-20.633587
0.909180,-0.015625,0.549072,-32.832062,9.244275,-23.290077
0.913086,-0.025635,0.593018,-30.244274,15.259542,-23.061069
0.866699,-0.032471,0.627197,-28.297710,13.015267,-21.381680
0.855469,-0.028076,0.643311,-24.732824,11.961832,-19.641222
0.890381,-0.050049,0.703369,-18.145039,15.793893,-17.534351
0.899902,-0.046387,0.675049,-15.648855,14.381680,-17.351145
0.927979,-0.013428,0.635986,-16.580153,10.259542,-20.236641
0.978027,0.001465,0.561035,-19.007633,6.526718,-24.961832
0.947510,-0.004395,0.501465,-21.847328,-3.106870,-30.961832
0.895996,-0.007812,0.493164,-24.931297,-12.946565,-35.862595
0.890625,-0.051025,0.516602,-30.564886,-8.496183,-35.969467
0.868408,-0.058350,0.516846,-36.641220,-1.809160,-33.038166
0.835693,-0.059814,0.481934,-45.541985,-1.610687,-29.389313
0.818115,-0.053467,0.488770,-58.091602,-2.885496,-25.000000
0.880859,-0.062256,0.537842,-60.496181,3.099237,-20.954199
0.884766,-0.089355,0.658936,-55.702290,7.793893,-16.580153
0.879883,-0.111084,0.665527,-54.496181,6.320611,-13.526717
0.964844,-0.130859,0.682861,-49.312977,3.190840,-16.740458
1.007812,-0.164795,0.750244,-38.854961,2.862595,-20.984734
0.982666,-0.182129,0.781494,-28.671755,-4.954198,-26.351145
0.961914,-0.169189,0.706055,-21.816793,-15.396947,-34.122139
0.959473,-0.129883,0.631592,-17.946566,-18.183207,-38.717556
0.937988,-0.115234,0.600098,-15.587787,-12.244275,-37.236641
0.862793,-0.099854,0.579102,-22.160305,-11.900764,-31.694656
0.875244,-0.088623,0.506592,-31.526718,-5.977099,-24.374046
0.895752,-0.110107,0.535400,-39.885498,1.045802,-17.160305
0.916748,-0.149170,0.575439,-46.564884,4.091603,-14.099236
0.901611,-0.183105,0.607178,-47.435116,2.809160,-15.389313
0.952881,-0.222168,0.643066,-38.885498,7.038168,-17.938931
0.953613,-0.243408,0.698975,-27.137405,10.564885,-21.557251
0.888428,-0.239746,0.714844,-15.625955,4.381680,-22.618320
0.880127,-0.220947,0.669434,-6.809160,2.412214,-21.702290
0.878174,-0.205811,0.639893,4.038168,4.213740,-19.419847
0.863281,-0.187012,0.632324,12.847328,3.236641,-15.969465
0.915283,-0.167969,0.615723,11.534351,5.083970,-13.977099
0.984131,-0.136230,0.521729,6.503817,9.748092,-13.755725
0.979004,-0.124512,0.453125,-1.236641,4.755725,-15.473283
0.956299,-0.107666,0.462158,-11.137404,2.290076,-14.664123
0.940918,-0.113037,0.519531,-17.580153,4.961832,-11.297709
0.952881,-0.133545,0.547852,-20.427481,9.847328,-9.801527
0.921875,-0.149902,0.605957,-18.610687,13.206107,-8.152672
0.937500,-0.160156,0.646973,-11.114504,19.923664,-7.450382
0.947754,-0.154297,0.653076,-6.748092,21.816793,-7.717557
0.960449,-0.143311,0.626221,-0.839695,19.351145,-8.832061
1.018555,-0.117920,0.643066,5.000000,26.503817,-7.557252
1.074463,-0.119629,0.626709,4.801527,34.305344,-4.671756
0.969482,-0.107422,0.640381,1.641221,14.251908,-11.435115
1.008789,-0.053711,0.527100,-3.763359,14.870229,-12.801527
1.053223,-0.048584,0.513916,-3.335878,19.541985,-16.305344