acce_x,acce_y,acce_z,gyro_x,gyro_y,gyro_z
0.175537,-0.367188,0.830566,-12.603053,2.702290,-54.938931
0.135742,-0.356201,0.844482,-11.870229,-0.183206,-53.801525
0.138428,-0.353027,0.852051,-12.656488,2.519084,-49.717556
0.128174,-0.345215,0.860107,-13.641221,6.183206,-45.022900
0.127197,-0.342773,0.853271,-16.549618,11.603053,-41.290077
0.143066,-0.341309,0.826660,-19.328245,15.030535,-37.977100
0.170654,-0.350342,0.822510,-20.389313,18.595419,-36.488548
0.191162,-0.334473,0.823486,-23.687023,22.068703,-34.877861
0.187256,-0.351562,0.816895,-26.312977,21.435114,-36.068703
0.176514,-0.374756,0.809814,-26.679390,18.099237,-39.435116
0.148926,-0.372070,0.815918,-24.473282,13.442748,-42.465649
0.145508,-0.384521,0.812988,-17.465649,12.755725,-45.015266
0.130371,-0.395264,0.840576,-8.748092,16.374046,-43.022900
-0.012451,-0.325439,0.815430,-8.099236,15.610687,-44.526718
0.095459,-0.396729,0.845947,-1.564885,-0.465649,-43.152672
0.124023,-0.349365,0.781738,-1.145038,9.213740,-37.427483
0.075928,-0.364990,0.799561,1.000000,4.969466,-34.473282
0.092529,-0.363770,0.784668,-0.381679,3.450382,-32.488548
0.127441,-0.354248,0.762939,-3.236641,5.625954,-31.618320
0.154297,-0.362549,0.772949,-5.931298,8.312977,-32.847328
0.170654,-0.353516,0.760010,-10.083969,10.908397,-33.923664
0.151855,-0.367432,0.752686,-13.648855,10.160305,-37.213741
0.154297,-0.358398,0.761719,-15.740458,7.824428,-40.221375
0.137207,-0.373779,0.770508,-16.091602,3.725191,-41.305344
0.124268,-0.365479,0.775635,-15.908397,-1.931298,-42.267174
0.137695,-0.382080,0.774414,-13.816793,-3.488550,-43.557251
0.140625,-0.388184,0.796143,-9.938931,-3.274809,-44.007633
0.143799,-0.390381,0.811523,-7.015267,-2.587786,-43.511452
0.150879,-0.382324,0.795654,-6.419847,0.938931,-42.450382
0.172119,-0.383789,0.781738,-7.114504,7.061069,-41.297710
0.167236,-0.381348,0.789795,-5.549618,10.679389,-40.190838
0.156006,-0.379150,0.797119,-3.877863,10.778625,-39.885498
0.155029,-0.374023,0.783447,-3.969466,9.541985,-40.641220
0.148926,-0.373535,0.773193,-5.603054,6.427481,-39.824429
0.136719,-0.374512,0.756836,-7.259542,0.847328,-39.702290
0.131104,-0.375244,0.743164,-9.725191,-6.183206,-41.068703
0.143311,-0.367188,0.722900,-13.335877,-10.709924,-43.793892
0.169922,-0.356934,0.723633,-16.335878,-11.763359,-44.366413
0.197998,-0.357666,0.730713,-17.022902,-9.847328,-43.946564
0.222168,-0.366699,0.753906,-18.809160,-4.305344,-43.442749
0.261475,-0.423584,0.839111,-17.213741,-12.167939,-46.167938
0.218018,-0.402832,0.816650,-15.824428,7.801527,-42.358780
0.218750,-0.366455,0.766357,-15.236641,10.419847,-41.175571
0.187744,-0.377441,0.800049,-13.755725,13.694656,-36.938931
0.135254,-0.393799,0.818115,-11.725191,6.679389,-33.961834
0.160156,-0.398682,0.790283,-11.442748,3.282443,-33.404579
0.179199,-0.398926,0.779297,-10.587787,-1.931298,-34.015266
0.212402,-0.391113,0.798096,-10.534351,-1.992366,-36.480915
0.249268,-0.382812,0.789307,-11.977099,2.274809,-38.587788
0.225830,-0.377930,0.778564,-13.656488,4.251908,-39.320610
0.239746,-0.372314,0.761230,-15.893129,8.267176,-39.061069
0.223877,-0.379639,0.768066,-10.610687,13.068703,-35.847328
0.249023,-0.378662,0.773926,-9.351145,21.229008,-29.572519
0.158936,-0.318115,0.752197,-12.801527,19.366413,-39.030533
0.211914,-0.418945,0.848633,-9.221375,18.419847,-40.725189
0.187988,-0.433594,0.819580,-4.137404,19.816793,-40.145039
0.204346,-0.396484,0.721924,0.625954,14.427481,-38.671757
0.126221,-0.420898,0.841797,3.732824,5.381680,-36.236641
0.177490,-0.412109,0.833252,7.251908,6.679389,-32.496181
0.155029,-0.430176,0.829590,8.511451,1.977099,-29.893129
0.154053,-0.399170,0.788086,6.320611,0.473282,-28.335878
0.189209,-0.395020,0.772705,3.068702,1.022901,-28.442749
0.181152,-0.364502,0.738281,-0.473282,-2.900763,-29.763359
0.197754,-0.355469,0.687500,-5.908397,0.908397,-30.549618
0.212402,-0.353271,0.691162,-9.961832,5.389313,-30.725191
0.218506,-0.366699,0.700684,-12.961832,7.732824,-31.198473
0.222900,-0.349854,0.697266,-16.053434,9.541985,-31.259542
0.174316,-0.335693,0.752930,-23.687023,15.282443,-33.603054
0.244873,-0.384521,0.785889,-20.030535,8.618320,-34.862595
0.250977,-0.370117,0.726562,-22.641222,14.832061,-33.580154
0.200195,-0.441650,0.809570,-16.190840,16.931297,-32.664124
0.185547,-0.404053,0.794678,-20.396946,8.450381,-30.496183
0.190430,-0.400146,0.829834,-19.335878,12.083969,-27.587786
0.154297,-0.412598,0.839600,-16.870230,9.366412,-25.343512
0.143799,-0.407959,0.788330,-17.419847,6.801527,-23.641222
0.187012,-0.390625,0.767090,-21.366413,7.328244,-23.923664
0.206055,-0.392822,0.751465,-24.183207,10.137404,-22.480917
0.214111,-0.384277,0.733154,-29.488550,13.687023,-21.038168
0.229980,-0.387695,0.716553,-34.061069,19.167938,-20.847328
0.235840,-0.395020,0.735352,-29.656488,27.977098,-19.145039
0.321289,-0.398682,0.745605,-29.106871,25.603054,-22.885496
0.229980,-0.412598,0.775391,-27.206106,21.557251,-26.030535
0.217773,-0.413330,0.789795,-23.572519,26.641222,-26.290077
0.171143,-0.453857,0.840332,-15.145039,22.832062,-26.183207
0.164062,-0.458008,0.840820,-10.000000,19.954199,-23.572519
0.163330,-0.437256,0.830322,-6.213740,19.053434,-20.312977
0.196289,-0.434082,0.821777,-2.106870,23.648855,-18.358778
0.217041,-0.444336,0.860352,0.511450,28.755726,-17.679390
0.206055,-0.435791,0.849365,1.885496,31.839695,-17.541985
0.217041,-0.410156,0.826660,0.129771,36.419846,-16.603054
0.236328,-0.408691,0.795166,-3.809160,41.099236,-18.030535
0.225830,-0.395752,0.797119,-9.328244,40.396946,-18.633587
0.203857,-0.383545,0.765381,-16.503817,39.847328,-18.633587
0.171143,-0.375244,0.732422,-21.442749,37.259541,-17.572519
0.198486,-0.365967,0.700684,-25.106871,34.946564,-16.778625
0.215576,-0.382568,0.710938,-26.442749,34.343510,-18.343512
0.185059,-0.389160,0.719727,-24.893129,31.679390,-20.083969
0.207520,-0.385986,0.735107,-21.664122,31.465649,-22.076336
0.225342,-0.396240,0.753418,-17.557251,32.885498,-25.335878
0.211182,-0.405273,0.774414,-14.412213,34.389313,-28.404581
0.189941,-0.414551,0.789062,-12.931297,33.503819,-30.381680
0.164795,-0.418701,0.777100,-11.610687,31.732824,-30.175573
0.155762,-0.433838,0.784424,-11.305344,29.389313,-30.091602
0.139404,-0.442139,0.758057,-11.564885,25.870230,-30.793894
0.149414,-0.440430,0.744385,-12.564885,24.374046,-31.206106
0.152832,-0.434082,0.739258,-14.511451,26.396946,-32.366413
0.145752,-0.446289,0.752197,-16.061069,26.862595,-32.778625
0.118896,-0.458252,0.728516,-18.572519,24.648855,-32.877861
0.108154,-0.438721,0.708740,-22.335878,22.358778,-31.816793
0.107422,-0.445557,0.683350,-26.374046,19.633587,-30.198473
0.126709,-0.456055,0.682129,-29.641222,19.045801,-31.267176
0.123779,-0.454346,0.689941,-30.618320,17.801527,-32.954197
0.131592,-0.454590,0.715088,-31.381680,17.427481,-32.900764
0.141846,-0.451416,0.705078,-28.946566,19.259542,-33.427483
0.149170,-0.466553,0.756592,-25.519083,16.763359,-33.427483
0.153564,-0.460938,0.750732,-24.885496,16.000000,-33.816795
0.151123,-0.459229,0.755371,-23.030535,15.679389,-34.931297
0.146729,-0.466553,0.752930,-19.908398,15.603053,-36.465649
0.122070,-0.474121,0.746338,-16.809160,13.297709,-36.244274
0.123535,-0.480225,0.755859,-16.969465,11.045801,-36.404579
0.132080,-0.484619,0.754395,-19.160305,10.145039,-36.618320
0.136230,-0.493164,0.749268,-20.114504,12.129771,-36.236641
0.145508,-0.488770,0.773438,-20.412214,16.816793,-34.534351
0.125732,-0.498047,0.763672,-18.442749,16.832062,-33.351147
0.137451,-0.508057,0.772705,-14.969465,18.259542,-31.832062
0.118652,-0.512695,0.771973,-12.358779,15.351145,-35.328243
0.132080,-0.511719,0.788818,-8.061069,16.190840,-35.351147
0.132324,-0.529297,0.802002,-0.610687,15.099236,-35.160305
0.108887,-0.526611,0.810547,3.969466,10.068703,-34.106869
0.094971,-0.529297,0.798096,5.824428,5.870229,-34.305344
0.095703,-0.515137,0.786377,6.343512,2.648855,-33.786259
0.094971,-0.510986,0.773193,3.816794,-3.152672,-32.694656
0.128906,-0.505615,0.769287,0.870229,-4.969466,-30.908398
0.145508,-0.501221,0.780273,-1.969466,-0.419847,-31.404581
0.155029,-0.507324,0.799316,-1.763359,6.931298,-30.946566
0.121338,-0.492432,0.798828,-1.992366,8.435115,-28.129770
0.121094,-0.495605,0.790771,-1.679389,8.091603,-26.671755
0.166016,-0.484131,0.801514,0.206107,10.061069,-27.213741
0.192139,-0.465820,0.795166,1.435115,11.282443,-29.488550
0.176514,-0.461426,0.764160,1.664122,9.656488,-30.961832
0.168457,-0.463623,0.779785,3.725191,6.458015,-32.610687
0.163086,-0.480713,0.804443,7.282443,2.290076,-34.786259
0.138672,-0.488770,0.796387,10.954199,-3.213740,-37.526718
0.121826,-0.483643,0.777344,12.312977,-8.732824,-37.335876
0.145752,-0.490723,0.764893,12.000000,-5.000000,-35.366413
0.176025,-0.492432,0.816162,8.648855,1.541985,-32.610687
0.197510,-0.483154,0.801514,3.923664,8.877863,-29.633587
0.186768,-0.480469,0.778076,1.450382,9.099236,-28.343512
0.199219,-0.476562,0.755127,-0.229008,9.358779,-29.992367
0.235840,-0.479736,0.759277,3.740458,13.801527,-33.374046
0.232422,-0.478027,0.800537,10.381680,16.083969,-36.580154
0.182373,-0.468506,0.791016,14.129771,13.106871,-37.687023
0.146729,-0.467285,0.794189,16.137405,6.435114,-36.916031
0.175781,-0.446777,0.764893,14.404580,6.679389,-34.801525
0.200439,-0.457275,0.748047,17.656488,10.236641,-34.511452
0.167480,-0.454834,0.731201,21.282442,8.335877,-35.206108
0.127441,-0.454834,0.734863,13.625955,10.152672,-31.290077
0.166748,-0.441650,0.685791,8.679389,9.198473,-31.946566
0.153809,-0.436523,0.671631,7.366412,8.641221,-30.007633
0.180908,-0.421631,0.694580,1.175573,11.091603,-29.335878
0.164062,-0.416260,0.676025,-5.152672,10.496183,-27.625954
0.187500,-0.398926,0.657471,-13.801527,12.526717,-25.603054
0.184570,-0.410889,0.660400,-18.061069,12.961832,-22.465649
0.255859,-0.406494,0.662109,-27.068703,14.519084,-21.847328
0.207275,-0.452881,0.676025,-33.793892,6.229008,-20.885496
0.284424,-0.428223,0.647461,-30.541985,20.648855,-22.755726
0.247070,-0.470459,0.745117,-21.343512,20.893129,-24.648855
0.190674,-0.454102,0.742920,-19.137405,21.083969,-22.549618
0.175049,-0.454590,0.753662,-17.229008,18.847328,-20.106871
0.183105,-0.480469,0.779785,-10.664123,18.183207,-18.969465
0.173828,-0.484863,0.801758,-4.473282,13.572519,-18.656488
0.134766,-0.493652,0.774170,-1.610687,7.862596,-18.068703
0.120361,-0.482178,0.752686,-2.931298,2.229008,-17.274809
0.118896,-0.485596,0.703125,-6.083970,-3.847328,-16.778625
0.084473,-0.463623,0.636719,-14.587787,-12.564885,-13.893129
0.108154,-0.445801,0.626221,-24.809160,-13.099236,-11.954199
0.127686,-0.460449,0.657471,-32.503819,-11.793893,-9.778625
0.100098,-0.485352,0.702148,-36.595421,-9.778625,-8.832061
0.064941,-0.506836,0.729980,-34.259541,-2.832061,-6.893130
0.074707,-0.541504,0.782715,-25.129770,5.633588,-4.335878
0.086670,-0.560059,0.812012,-19.190840,12.442748,-3.473282
0.094971,-0.546875,0.815918,-16.908398,12.435115,-1.801527
0.121094,-0.542236,0.814941,-13.045801,10.221375,-2.992366
0.183105,-0.556396,0.828125,-9.938931,10.396947,-9.320611
0.166016,-0.573486,0.865723,-3.244275,5.312977,-13.221375
0.133545,-0.550049,0.833008,-1.618321,1.083969,-14.725191
0.127686,-0.541016,0.821289,-1.755725,0.625954,-13.038168
0.122559,-0.552490,0.822510,-3.793893,1.832061,-10.389313
0.112793,-0.560791,0.777588,-6.610687,0.625954,-8.961832
0.129395,-0.546875,0.746338,-10.641221,1.198473,-7.473282
0.134277,-0.548828,0.738525,-14.190840,2.564885,-6.916030
0.143066,-0.554688,0.745117,-10.473283,5.404580,-6.183206
0.141113,-0.554199,0.834717,-6.396946,7.320611,-4.679389
0.152344,-0.520752,0.841064,-5.816794,11.015267,-1.709924
0.176758,-0.506104,0.857178,-2.190840,13.488549,-1.549618
0.196533,-0.480469,0.876709,4.618320,13.809160,-1.358779
0.211426,-0.464844,0.841309,5.122138,11.549619,-4.664122
0.240234,-0.442871,0.805908,2.320611,5.961832,-8.717557
0.233887,-0.429688,0.765381,0.305344,3.801527,-11.274809
0.223389,-0.412842,0.742920,-3.969466,0.465649,-14.519084
0.219482,-0.394043,0.685303,-8.244275,1.297710,-14.015267
0.262695,-0.402100,0.704590,-9.496183,10.015267,-16.572519
0.242920,-0.423340,0.725830,-7.793893,12.618320,-18.740458
0.216064,-0.414062,0.699219,-7.030534,15.572519,-18.732824
0.200684,-0.423340,0.742432,-6.045802,15.832061,-17.419847
0.202881,-0.443604,0.746094,-2.671756,16.015266,-18.076336
0.172607,-0.460693,0.760742,0.885496,14.511451,-20.938931
0.126709,-0.463867,0.747070,1.396947,9.618320,-19.496183
0.128174,-0.449219,0.723877,-2.091603,9.877863,-15.770992
0.156982,-0.462891,0.709717,-7.633588,12.083969,-12.717557
0.128906,-0.460693,0.685059,-9.740458,13.687023,-10.259542
0.170898,-0.454590,0.691162,-10.793893,19.320610,-9.954199
0.210938,-0.458008,0.693848,-10.770992,24.167938,-11.259542
0.182861,-0.452881,0.681641,-10.687023,23.351145,-13.351145
0.159912,-0.462402,0.675781,-8.580153,17.595419,-15.801527
0.197510,-0.440674,0.662842,-7.068702,18.450382,-16.587786
0.180420,-0.476562,0.766846,-6.305344,22.335878,-11.511451
0.090820,-0.462891,0.711670,-2.969466,13.511451,-15.564885
0.140625,-0.479004,0.741455,-2.557252,10.106871,-13.473283
0.154541,-0.486328,0.758545,-4.969466,12.000000,-13.809160
0.108887,-0.511230,0.756104,-4.832061,9.580153,-14.496183
0.108398,-0.499512,0.747803,-2.488550,7.412214,-13.564885
0.114502,-0.489502,0.743652,-0.419847,7.862596,-13.221375
0.153320,-0.482422,0.743896,1.580153,12.267176,-14.175572
0.118652,-0.492432,0.733887,3.267176,9.946565,-13.572519
0.119141,-0.468506,0.677490,0.534351,7.549618,-14.229008
0.112549,-0.451416,0.682129,-4.786260,2.458015,-13.824428
0.106445,-0.441162,0.663330,-11.938931,-0.076336,-14.206107
0.127197,-0.445801,0.646729,-19.488550,2.496183,-15.511451
0.156494,-0.448975,0.695801,-25.603054,12.045801,-14.541985
0.123535,-0.461182,0.702881,-29.992367,15.946565,-12.938931
0.097656,-0.476562,0.692383,-33.076336,20.007633,-9.839695
0.125000,-0.490234,0.708252,-36.206108,24.129770,-7.748092
0.152100,-0.526123,0.722168,-31.656488,27.656488,-9.679389
0.137207,-0.570801,0.776855,-23.007633,27.244274,-13.488549
0.067139,-0.588379,0.783691,-14.305344,21.916031,-15.175572
0.032959,-0.585205,0.775391,-9.267176,15.053435,-13.877863
0.027832,-0.561279,0.743164,-10.221375,10.366412,-11.122137
-0.005127,-0.545898,0.671875,-16.335878,4.679389,-7.091603
0.016113,-0.506104,0.599854,-26.007633,1.465649,-3.648855
0.056396,-0.495117,0.597168,-34.526718,2.076336,-0.557252
0.130859,-0.481201,0.635986,-39.007633,8.671756,1.580153
0.140137,-0.495605,0.675049,-38.251907,14.114504,1.931298
0.184814,-0.512695,0.716309,-33.778625,20.854961,0.297710
0.170654,-0.527344,0.774414,-27.358778,19.343512,-1.946565
0.157715,-0.532227,0.796143,-22.145039,14.572519,-3.221374
0.147217,-0.560059,0.812744,-15.946565,9.145039,-5.305344
0.164551,-0.562012,0.802490,-9.656488,5.450382,-7.763359
0.193604,-0.545166,0.767822,-5.839694,2.000000,-8.702291
0.223145,-0.506104,0.729492,-5.824428,4.015267,-9.725191
0.221436,-0.499756,0.743896,-4.763359,2.320611,-11.603053
0.223145,-0.490723,0.726074,-3.717557,2.000000,-10.511451
0.224121,-0.489990,0.745361,-7.068702,4.320611,-9.816793
0.198486,-0.476807,0.682373,-11.984733,3.496183,-9.198473
0.229492,-0.471436,0.654541,-20.297710,6.282443,-11.793893
0.254150,-0.486816,0.692383,-27.122137,7.832061,-16.267176
0.263184,-0.490234,0.717041,-30.633587,12.259542,-20.503817
0.222168,-0.537354,0.783203,-27.068703,11.893129,-24.190840
0.174561,-0.546387,0.790527,-22.900763,9.557252,-24.167938
0.183350,-0.557373,0.795654,-17.488550,9.167939,-24.206106
0.125000,-0.587891,0.827148,-6.687023,9.190840,-23.183207
0.173096,-0.548340,0.832764,-3.389313,11.007633,-18.694656
0.182861,-0.512207,0.799805,-5.229008,14.778625,-14.671756
0.156250,-0.512695,0.764648,-4.221374,10.816793,-12.419847
0.232422,-0.486328,0.773926,-3.763359,17.229008,-9.458015
0.275146,-0.466553,0.742676,-6.549618,20.282442,-9.641221
0.252441,-0.469971,0.721680,-5.572519,12.725191,-16.175573
0.346680,-0.422852,0.678711,-8.557252,16.099237,-22.198473
0.246338,-0.446289,0.714844,-5.183206,13.511451,-26.152672
0.083008,-0.489258,0.680908,0.664122,4.671756,-29.709923
0.017822,-0.520752,0.666016,7.870229,-5.503817,-28.122137
0.017334,-0.532959,0.665039,15.396947,-6.305344,-21.419847
0.040039,-0.536133,0.656006,17.725191,-7.030534,-18.717558
0.083252,-0.501953,0.630615,15.572519,-7.755725,-17.267176
0.177002,-0.459229,0.618652,5.282443,-2.916031,-17.656488
0.284668,-0.453613,0.619629,-8.847328,5.786260,-21.221375
0.309570,-0.490234,0.621338,-19.748091,14.038168,-24.183207
0.258789,-0.515869,0.668213,-28.641222,17.763359,-26.580153
0.213379,-0.563965,0.716064,-31.358778,17.229008,-28.595419