acce_x,acce_y,acce_z,gyro_x,gyro_y,gyro_z
0.068115,-0.345703,0.847900,2.236641,20.908398,-21.648855
0.074219,-0.344482,0.863770,3.725191,22.847328,-25.503817
0.077393,-0.342041,0.858887,5.267176,25.030535,-30.183207
0.077393,-0.332764,0.855469,6.305344,27.305344,-34.068703
0.062988,-0.327881,0.841309,6.259542,29.778625,-37.198475
0.056885,-0.327637,0.821289,6.435114,32.687023,-39.488548
0.052002,-0.309570,0.812012,4.870229,34.946564,-41.946564
0.066895,-0.320312,0.809082,3.954198,38.106869,-46.374046
0.072021,-0.315186,0.806641,2.702290,42.801525,-50.389313
0.061279,-0.315918,0.806641,2.595420,47.786259,-53.931297
0.063477,-0.321777,0.803223,2.290076,51.412212,-58.213741
0.052734,-0.314453,0.794922,1.412214,52.503819,-63.175571
0.045654,-0.320312,0.784424,0.465649,51.519085,-68.091606
0.031006,-0.312500,0.779541,0.114504,51.618320,-71.374046
0.001709,-0.315430,0.778320,-0.061069,50.343510,-72.923668
-0.050293,-0.312256,0.764893,-0.427481,45.236641,-71.793892
-0.088623,-0.320557,0.770508,-0.847328,39.358780,-68.122139
-0.115967,-0.325684,0.791992,-1.595420,33.267174,-61.725189
-0.103760,-0.330566,0.826172,-1.656489,29.618320,-57.328243
-0.119629,-0.330811,0.821777,-2.061069,25.946566,-55.358780
-0.130859,-0.333496,0.863770,1.770992,17.893129,-50.885498
-0.068359,-0.335449,0.837891,2.847328,12.137404,-48.282444
-0.031250,-0.337402,0.830566,3.580153,9.610687,-46.801525
-0.007568,-0.330322,0.831299,3.160305,9.809160,-46.129772
0.013428,-0.321777,0.821533,2.641221,11.824428,-45.335876
0.013184,-0.326904,0.828613,2.068702,15.572519,-44.755726
0.017822,-0.326172,0.800537,1.564885,18.091602,-44.129772
0.006348,-0.320068,0.802979,0.427481,19.916031,-43.244274
-0.021729,-0.325684,0.802734,1.450382,18.946566,-40.236641
-0.027100,-0.314209,0.780029,0.473282,17.893129,-37.839695
-0.020264,-0.320068,0.782715,0.297710,16.167938,-37.702290
0.006104,-0.324951,0.776123,-0.480916,14.465649,-40.564884
0.025635,-0.331787,0.792480,-1.206107,11.824428,-45.839695
0.047852,-0.325439,0.789307,-2.648855,10.343512,-51.251907
0.055420,-0.326172,0.783203,-2.587786,10.748092,-55.320610
0.053467,-0.324951,0.787109,-4.480916,12.366412,-58.480915
0.037354,-0.336426,0.789307,-5.335878,14.503817,-60.419846
0.023682,-0.327881,0.794922,-5.916030,19.213741,-60.473282
0.008545,-0.331299,0.802734,-4.687023,21.961832,-58.198475
-0.017578,-0.344727,0.807373,-3.213740,25.870230,-55.374046
-0.057861,-0.351807,0.801514,-1.969466,27.106871,-51.801525
-0.025391,-0.355225,0.804199,-3.244275,30.816793,-49.969467
-0.046387,-0.347412,0.808350,-4.000000,33.137405,-48.694656
-0.040039,-0.360352,0.817627,-2.442748,35.061069,-47.244274
-0.053711,-0.364502,0.822021,-2.106870,32.923664,-47.236641
-0.044678,-0.354980,0.839111,-2.396947,32.320610,-47.374046
-0.030518,-0.359131,0.843750,-3.114504,31.839695,-49.450382
-0.019287,-0.364990,0.852539,-2.099237,32.824429,-52.030533
-0.047852,-0.366211,0.853027,-0.839695,31.587786,-54.259541
-0.052490,-0.362793,0.839844,1.145038,28.038168,-55.648853
-0.047607,-0.359619,0.838867,1.648855,26.328245,-57.862595
-0.043701,-0.357178,0.832275,3.290076,28.076336,-57.389313
-0.081299,-0.351318,0.828369,5.106870,27.511450,-53.717556
-0.069336,-0.353516,0.804688,4.137404,29.679390,-51.236641
-0.059326,-0.345703,0.803711,1.053435,30.793894,-49.641220
-0.041504,-0.346680,0.790283,-0.992366,33.213741,-50.175571
-0.010498,-0.342773,0.802490,-4.183206,36.389313,-52.183205
0.025635,-0.341553,0.782715,-4.244275,39.954197,-55.549618
0.050049,-0.357422,0.815674,-2.381679,44.801525,-61.305344
0.043457,-0.361572,0.832520,-2.358779,46.931297,-67.618324
-0.006348,-0.362061,0.819824,-2.679389,44.671757,-70.954201
-0.032715,-0.343994,0.806396,-3.534351,44.419846,-72.389313
-0.090820,-0.339355,0.798584,-3.450382,42.885498,-70.022903
-0.138672,-0.340332,0.796875,-2.778626,38.412212,-65.458015
-0.119629,-0.348145,0.789795,1.091603,37.725189,-59.984734
-0.112061,-0.356934,0.805420,5.702290,37.603054,-56.916031
-0.106201,-0.369629,0.802002,7.992366,36.793892,-54.549618
-0.074463,-0.363525,0.771484,6.832061,39.190838,-54.526718
-0.077148,-0.363770,0.756592,6.793893,36.549618,-54.656490
-0.059570,-0.389160,0.756104,1.870229,36.320610,-59.091602
-0.072021,-0.351074,0.722656,-5.045802,37.114502,-62.977100
-0.112793,-0.365967,0.729980,-8.847328,37.183205,-62.709923
-0.146240,-0.366943,0.733398,-10.358779,36.541985,-59.435116
-0.172852,-0.390381,0.753906,-11.083969,32.427483,-55.977100
-0.142334,-0.388672,0.788086,-10.152672,34.419846,-56.343510
-0.157227,-0.406494,0.794189,-5.931298,32.328243,-57.129772
-0.151123,-0.401855,0.796631,-1.717557,26.488550,-57.809162
-0.131348,-0.389893,0.816895,2.526718,26.503817,-55.847328
-0.003418,-0.405029,0.814209,5.267176,36.694656,-55.053436
-0.099365,-0.386963,0.842041,12.503817,35.900764,-36.366413
-0.093506,-0.329346,0.832520,6.961832,34.717556,-58.351147
-0.140137,-0.379150,0.820312,5.839694,25.679390,-61.435116
-0.161377,-0.351807,0.791992,4.167939,15.824428,-60.923664
-0.144043,-0.323242,0.753662,-0.091603,8.694656,-58.877861
-0.144043,-0.317139,0.724854,-4.877862,5.083970,-56.832062
-0.130371,-0.306396,0.703369,-12.862596,1.175573,-54.022900
-0.135498,-0.314453,0.689453,-19.068703,-5.694656,-51.664124
-0.081299,-0.314453,0.699219,-26.625954,-8.290076,-53.145039
-0.028564,-0.336670,0.752197,-30.740458,-3.900763,-55.832062
-0.017334,-0.358154,0.797119,-26.847328,0.137405,-57.847328
-0.048584,-0.369629,0.836670,-18.671755,0.320611,-55.618320
-0.057617,-0.391602,0.863037,-9.389313,5.259542,-51.679390
-0.094971,-0.391113,0.862793,-3.946565,8.213740,-47.022900
-0.082031,-0.390381,0.838379,-3.091603,9.992367,-42.145039
-0.079834,-0.397705,0.828125,-4.175572,8.725191,-45.206108
-0.090820,-0.390381,0.823730,-3.259542,6.450382,-44.229008
-0.058105,-0.393066,0.812500,-2.297710,6.801527,-45.389313
-0.055176,-0.393555,0.808594,-5.137404,6.175572,-45.992367
-0.055420,-0.389404,0.770264,-9.442748,8.511451,-48.824429
-0.042969,-0.372803,0.739990,-16.557251,7.496183,-50.129772
-0.039062,-0.368896,0.731689,-21.954199,6.564886,-48.931297
-0.012695,-0.360107,0.733643,-28.480917,10.633588,-53.015266
-0.009521,-0.394043,0.756592,-25.923664,7.801527,-55.038166
0.002441,-0.400391,0.791016,-22.022902,9.396947,-56.984734
-0.023193,-0.404297,0.808350,-21.832062,10.603053,-58.656490
-0.084473,-0.418213,0.808350,-17.374046,14.251908,-37.473282
-0.119629,-0.443604,0.857422,-20.534351,14.419847,-50.419846
-0.110840,-0.476074,0.854492,-18.160305,16.992367,-47.312977
-0.126709,-0.480957,0.844727,-13.587787,13.786260,-44.145039
-0.100830,-0.480713,0.821533,-12.145039,13.564885,-41.977100
-0.091797,-0.466064,0.784668,-13.664123,17.022902,-40.282444
-0.118408,-0.461426,0.747314,-14.351145,12.305344,-38.549618
-0.100342,-0.452393,0.732422,-15.419847,10.740458,-37.274811
-0.100830,-0.443604,0.720703,-15.076336,5.053435,-36.870228
-0.051270,-0.414795,0.736572,-16.946566,8.328244,-35.473282
-0.075928,-0.419922,0.716797,-15.358779,7.687023,-30.320610
-0.036621,-0.382080,0.732178,-16.343512,16.068703,-25.183207
-0.031494,-0.406738,0.722900,-16.709923,14.854961,-26.290077
-0.012695,-0.404297,0.736572,-19.000000,20.671755,-26.221375
-0.050537,-0.397217,0.706055,-19.503817,19.938931,-23.923664
-0.024902,-0.414062,0.762207,-17.687023,24.473282,-21.450382
-0.055908,-0.430908,0.759033,-14.412213,26.053434,-16.984734
-0.065918,-0.442871,0.752930,-13.167939,21.099237,-18.992367
-0.077148,-0.443359,0.749756,-11.129771,19.366413,-16.717558
-0.051758,-0.442871,0.736084,-11.496183,20.839695,-17.229008
-0.019531,-0.422852,0.732666,-12.396947,22.877863,-17.740458
-0.000732,-0.410400,0.709473,-14.549619,27.145039,-16.473282
-0.013184,-0.402832,0.705811,-18.244274,29.893129,-15.839695
0.011230,-0.413330,0.711914,-21.687023,33.740459,-18.648855
0.024414,-0.431396,0.728271,-23.374046,32.282444,-22.251909
-0.002197,-0.460693,0.770752,-22.030535,30.534351,-25.335878
0.009277,-0.431885,0.752686,-24.137405,29.519083,-29.236641
-0.010010,-0.473633,0.791016,-21.396946,24.679390,-33.656490
-0.013184,-0.484863,0.798096,-17.954199,22.152672,-36.137405
-0.007812,-0.492188,0.822998,-15.625955,24.145039,-36.167938
-0.022461,-0.497314,0.793213,-13.541985,34.870228,-24.106871
-0.053467,-0.506592,0.781982,-15.152672,31.725191,-32.236641
-0.024902,-0.484131,0.773193,-18.450382,33.702290,-32.068703
-0.022461,-0.482910,0.752197,-21.809160,32.900764,-35.122139
-0.014648,-0.480713,0.753906,-22.908398,33.007633,-35.938931
-0.011475,-0.471191,0.757812,-19.725191,40.961834,-21.732824
-0.070068,-0.486816,0.778076,-23.129770,34.984734,-34.923664
-0.071777,-0.515869,0.787354,-21.633587,32.633587,-35.305344
-0.083740,-0.528564,0.773438,-19.610687,30.526718,-35.229008
-0.063965,-0.531738,0.789062,-15.297709,36.328243,-24.068703
-0.108154,-0.560547,0.795166,-13.793893,31.595419,-34.992367
-0.113770,-0.548828,0.789795,-9.702291,25.877863,-35.847328
-0.075928,-0.540283,0.765625,-9.244275,27.167938,-35.114502
-0.065186,-0.523193,0.747070,-8.687023,31.763359,-33.969467
-0.104736,-0.531006,0.729980,-8.374045,32.274811,-31.068703
-0.120117,-0.536621,0.701660,-9.396947,31.015266,-30.511450
-0.122559,-0.542480,0.692627,-10.671756,28.335878,-31.992367
-0.119385,-0.559082,0.698975,-9.366412,25.297710,-33.694656
-0.115234,-0.566406,0.710938,-5.312977,25.778625,-33.610687
-0.137451,-0.562500,0.724609,-2.091603,26.343512,-31.877863
-0.158936,-0.560303,0.702637,-0.511450,26.816793,-29.770992
-0.159180,-0.545654,0.694336,0.862595,24.702290,-27.770992
-0.141602,-0.531982,0.681885,0.580153,25.328245,-27.137405
-0.117920,-0.523438,0.677246,0.404580,29.458015,-15.358779
-0.130127,-0.536621,0.673584,-2.068702,24.503817,-25.389313
-0.101562,-0.515869,0.664062,-4.381680,19.877863,-32.175571
-0.115723,-0.498291,0.640381,-5.534351,12.961832,-35.877861
-0.115234,-0.502930,0.634277,-6.908397,10.328244,-36.557251
-0.135986,-0.510742,0.633301,-9.893129,11.572519,-35.641220
-0.167236,-0.515137,0.654541,-11.534351,16.083969,-31.465649
-0.166504,-0.539551,0.669434,-12.625955,17.022902,-29.977098
-0.147705,-0.543213,0.687012,-11.893129,18.740458,-28.099237
-0.130859,-0.547607,0.708984,-9.312977,24.396946,-27.755726
-0.143311,-0.573242,0.745605,-6.251908,24.732824,-27.984734
-0.119873,-0.563965,0.755615,-4.068702,24.221375,-27.412214
-0.142090,-0.568604,0.725098,-3.312977,24.091602,-24.274809
-0.147949,-0.557129,0.728027,-4.167939,18.603054,-27.091602
-0.144531,-0.552490,0.699219,-1.931298,17.839695,-21.648855
-0.143066,-0.548584,0.690186,-2.419847,15.404580,-19.404581
-0.113770,-0.541016,0.634277,-1.725191,14.206107,-20.083969
-0.084961,-0.521240,0.594238,-6.458015,13.580153,-20.053434
-0.088867,-0.512939,0.594727,-9.862596,9.221375,-21.916031
-0.044678,-0.532227,0.628906,-12.916031,13.358779,-22.885496
-0.064209,-0.576660,0.678955,-10.938931,22.305344,-25.916031
-0.037354,-0.554199,0.680664,-12.961832,26.412214,-27.015266
-0.053955,-0.584473,0.720459,-10.839695,32.297710,-27.778625
-0.124023,-0.611328,0.736572,-5.335878,29.893129,-29.015266
-0.159912,-0.593506,0.738525,-2.099237,26.885496,-26.870230
-0.171875,-0.586914,0.707764,0.900763,19.557251,-25.809160
-0.165283,-0.592529,0.705322,1.717557,15.877863,-25.580153
-0.134033,-0.563721,0.671631,-0.511450,12.877863,-25.694656
-0.130371,-0.555664,0.667725,-4.290076,11.778625,-23.763359
-0.149658,-0.565186,0.672363,-8.549619,7.664122,-24.916031
-0.117188,-0.545898,0.696045,-12.610687,6.572519,-22.824427
-0.093262,-0.562500,0.707520,-15.290076,11.099236,-21.938931
-0.113037,-0.572510,0.700439,-15.549619,17.213741,-20.778625
-0.125488,-0.574219,0.722900,-14.076336,23.412214,-18.251909
-0.136719,-0.602051,0.701904,-10.465649,27.343512,-16.374046
-0.157715,-0.604492,0.702148,-6.770992,29.106871,-15.580153
-0.163818,-0.614502,0.706299,-1.740458,29.984734,-14.282443
-0.179443,-0.620361,0.688721,4.015267,27.725191,-13.061069
-0.150879,-0.610596,0.684082,8.763359,23.068703,-12.610687
-0.115723,-0.613525,0.705566,11.183207,20.564886,-13.183207
-0.119385,-0.598145,0.708984,11.351145,15.854961,-15.603053
-0.108643,-0.586670,0.701416,12.190840,12.938931,-16.671755
-0.121826,-0.598877,0.687988,12.358779,11.526717,-17.801527
-0.073975,-0.587891,0.685791,12.519084,12.580153,-18.557251
-0.085449,-0.547363,0.653076,11.282443,20.503817,-17.366413
-0.134277,-0.589844,0.632324,12.396947,21.389313,-14.396947
-0.159912,-0.499756,0.603760,9.564885,13.946565,-18.435114
-0.150146,-0.539307,0.618164,7.809160,12.824428,-19.870230
-0.119873,-0.533447,0.628174,3.854962,14.381680,-20.435114
-0.108887,-0.530518,0.656006,-1.137405,21.381680,-21.290077
-0.125732,-0.532227,0.671631,-2.847328,21.320610,-22.709923
-0.097656,-0.533447,0.682129,-3.854962,23.167938,-24.328245
-0.136475,-0.553955,0.696045,-6.656488,20.290077,-27.679390
-0.138916,-0.565186,0.718750,-7.465649,14.709924,-29.603054
-0.156738,-0.590820,0.740234,-5.335878,16.671755,-27.145039
-0.197510,-0.595947,0.761719,2.282443,13.259542,-21.442749
-0.240967,-0.635010,0.760742,9.862596,2.923664,-18.923664
-0.220947,-0.608398,0.728027,8.786260,-1.557252,-17.908398
-0.212158,-0.610352,0.702637,11.427481,-5.274809,-18.290077
-0.183594,-0.618896,0.700439,16.541985,-4.816794,-17.229008
-0.173096,-0.617188,0.669922,19.473282,-1.786260,-19.763359
-0.170166,-0.607178,0.695801,20.610687,3.412214,-19.641222
-0.171631,-0.607422,0.705078,21.175573,4.923664,-19.419847
-0.215332,-0.597168,0.699951,23.702290,3.435115,-18.145039
-0.222656,-0.589844,0.720459,26.961832,2.351145,-14.893129
-0.191406,-0.572754,0.704102,29.748091,0.709924,-11.068703
-0.165771,-0.571533,0.669678,29.931297,0.297710,-11.625955
-0.157471,-0.563477,0.649658,32.625954,-4.015267,-12.770992
-0.182617,-0.518799,0.651367,34.297710,-6.679389,-11.748092
-0.194824,-0.641846,0.612549,30.396946,-6.480916,-11.480916
-0.208984,-0.505127,0.596924,27.503817,-14.244275,-12.328244
-0.155762,-0.496338,0.569092,22.862595,-9.824428,-12.290076
-0.091064,-0.465576,0.547119,18.641222,-4.977099,-11.343512
-0.071045,-0.539795,0.576660,12.206107,6.091603,-12.427481
-0.063232,-0.463135,0.594727,10.564885,14.648855,-11.931297
-0.075684,-0.489990,0.632080,9.908397,23.450382,-12.648855
-0.054688,-0.478516,0.676514,7.503817,29.511450,-14.519084
-0.086670,-0.527588,0.707275,7.534351,35.610687,-13.740458
-0.121582,-0.487061,0.730957,3.648855,32.587788,-13.297709
-0.188232,-0.528320,0.750244,4.236641,21.503817,-13.396947
-0.198730,-0.568115,0.769287,12.152672,14.625955,-9.862596
-0.154541,-0.562256,0.787842,14.732824,9.496183,-8.137404
-0.083496,-0.539307,0.713379,14.076336,13.305344,-11.885496
-0.009521,-0.447510,0.720215,6.763359,22.396946,-12.992367
0.047363,-0.459961,0.708984,1.778626,35.152672,-15.809160
0.038574,-0.412109,0.688965,-6.549618,37.839695,-22.099237
0.002930,-0.437012,0.680908,-13.625955,42.083969,-27.458015
0.008545,-0.417969,0.676758,-20.633587,50.580154,-31.564886
-0.004150,-0.409912,0.697754,-31.656488,59.641220,-36.893131
-0.078857,-0.440186,0.690186,-46.114502,60.778625,-49.541985
-0.154053,-0.418213,0.689453,-57.099236,47.259541,-56.412212
-0.219727,-0.574951,0.708252,-56.900764,29.549618,-55.488548
-0.216553,-0.558105,0.734131,-42.274811,17.274809,-47.244274
-0.228516,-0.617920,0.780518,-24.839695,9.183207,-42.167938
-0.190186,-0.610352,0.834717,-14.648855,10.091603,-36.259541
-0.203613,-0.621582,0.834717,-6.908397,7.442748,-32.862595
-0.230225,-0.646484,0.810547,-0.740458,6.366412,-29.358778
-0.263184,-0.634766,0.773193,2.877863,6.793893,-27.854961
-0.258057,-0.612793,0.753662,3.328244,6.625954,-24.931297
-0.265625,-0.582031,0.678467,1.748092,1.870229,-23.190840
-0.233887,-0.568604,0.642578,-0.992366,-1.893130,-22.908398
-0.167480,-0.534180,0.594238,-2.129771,0.854962,-22.679390
-0.156738,-0.528809,0.565674,-2.877863,4.992366,-21.229008
-0.167969,-0.522949,0.566406,-4.916030,6.335878,-21.572519
-0.135986,-0.517578,0.573242,-5.633588,9.343512,-22.053434
-0.116211,-0.538330,0.595703,-5.190840,18.404581,-19.213741
-0.172363,-0.575195,0.608398,-2.526718,20.099237,-17.946566
-0.188965,-0.597168,0.637939,-1.183206,24.450382,-14.335877
-0.236084,-0.610107,0.642822,1.564885,20.083969,-11.641221
-0.262451,-0.646240,0.669922,7.007634,7.007634,-10.671756
-0.246582,-0.625488,0.690186,6.893130,-4.343512,-11.343512
-0.206055,-0.589844,0.660645,5.221374,-11.351145,-9.374045
-0.126709,-0.576660,0.643311,4.320611,-12.610687,-10.389313
-0.064209,-0.534424,0.652344,2.404580,-6.114504,-11.511451
-0.039307,-0.512695,0.653809,-0.954198,1.152672,-12.946565
-0.014404,-0.489990,0.652832,-1.992366,9.717557,-13.992367
-0.032715,-0.505371,0.703369,-1.267176,15.916031,-15.366412
-0.041992,-0.523193,0.747803,1.236641,20.198473,-16.106871
-0.057861,-0.542480,0.770020,5.167939,27.419847,-14.152672
-0.120117,-0.550537,0.782715,7.854962,30.045801,-11.748092
-0.106445,-0.583252,0.753906,13.687023,33.541985,-6.183206