acce_x,acce_y,acce_z,gyro_x,gyro_y,gyro_z
1.575241,1.575237,0.000000,-4.786260,1.160305,-1.381679
0.725098,0.198730,0.822266,-3.946565,0.755725,-1.190840
0.730957,0.195312,0.830322,-3.610687,1.099237,-0.931298
0.731201,0.193848,0.822021,-3.244275,1.664122,-0.961832
0.720459,0.190674,0.826172,-2.931298,1.198473,-0.549618
0.723145,0.205078,0.818359,-2.603053,-0.198473,0.435115
0.738037,0.194824,0.811035,-1.290076,0.877863,0.328244
0.740723,0.210693,0.824219,-2.511450,0.320611,-0.625954
0.740234,0.206299,0.808838,-1.977099,-1.091603,-1.267176
0.738525,0.203125,0.812256,-1.351145,-1.412214,-2.229008
0.740479,0.205322,0.819336,-0.832061,-1.450382,-2.213740
0.739258,0.207031,0.811768,-1.190840,-1.618321,-2.770992
0.741943,0.207520,0.809570,-1.625954,-1.305344,-3.335878
0.732666,0.205322,0.807861,-2.580153,-0.419847,-2.755725
0.736816,0.206543,0.797119,-4.496183,0.198473,-1.755725
0.727295,0.198730,0.800049,-5.839694,0.305344,-0.992366
0.732910,0.200928,0.799561,-6.809160,1.763359,-1.053435
0.747314,0.198486,0.802490,-6.534351,3.129771,-1.473282
0.756592,0.200439,0.809326,-6.122138,3.656489,-2.946565
0.758545,0.199219,0.797852,-4.412214,1.648855,-4.137404
0.751465,0.208740,0.803955,-7.297710,-0.496183,-4.984733
0.746338,0.204834,0.808105,-7.809160,1.022901,-4.900764
0.742920,0.205566,0.816406,-8.893129,0.496183,-4.015267
0.745117,0.198730,0.824951,-9.282443,3.000000,-3.435115
0.769531,0.209229,0.818604,-11.496183,6.000000,-4.389313
0.750488,0.193848,0.817627,-12.824428,8.000000,-5.702290
0.738037,0.188965,0.803223,-12.419847,6.603054,-5.320611
0.718262,0.190430,0.814697,-11.893129,3.969466,-4.809160
0.717285,0.188477,0.819580,-11.656488,4.480916,-4.885496
0.736816,0.191650,0.822266,-10.694656,4.931298,-4.847328
0.722900,0.184326,0.810303,-9.977099,4.244275,-5.053435
0.724854,0.186523,0.815918,-7.977099,3.274809,-4.511450
0.725830,0.183350,0.823486,-6.030534,1.870229,-4.167939
0.732422,0.181885,0.820557,-4.870229,1.419847,-4.656488
0.739014,0.179443,0.818848,-4.541985,2.404580,-4.603054
0.731201,0.185547,0.816406,-3.335878,0.824427,-4.755725
0.741455,0.188232,0.808350,-2.885496,1.961832,-3.946565
0.752686,0.189209,0.822510,-2.862595,3.244275,-3.603053
0.769043,0.194336,0.822021,-3.748092,5.335878,-4.984733
0.763184,0.189453,0.812012,-4.709924,6.603054,-6.137404
0.764893,0.189209,0.816162,-5.114504,6.297710,-6.816794
0.755859,0.180908,0.816650,-5.160306,5.358778,-8.145039
0.748779,0.166016,0.843018,-4.335878,4.603054,-10.274809
0.742676,0.211914,0.766113,-6.068702,3.061069,-11.381680
0.775879,0.192627,0.808594,-6.832061,6.389313,-12.328244
0.775635,0.185303,0.800293,-5.954198,6.511450,-14.923664
0.775146,0.185059,0.804199,-6.236641,6.900764,-17.152672
0.780518,0.187988,0.799316,-7.076336,8.793893,-18.480917
0.782715,0.184814,0.808350,-7.854962,10.786260,-20.068703
0.789307,0.189209,0.810791,-8.022901,12.450381,-21.427481
0.781494,0.184814,0.817627,-8.435115,13.503817,-22.633587
0.772949,0.186523,0.812744,-8.572519,14.244275,-22.770992
0.763184,0.178223,0.828125,-8.244275,15.526717,-23.595419
0.766357,0.177979,0.818115,-8.236641,15.633588,-26.000000
0.783447,0.175781,0.804443,-8.877863,15.770992,-28.671755
0.777100,0.177246,0.806152,-10.274809,15.106871,-31.885496
0.764893,0.174316,0.798340,-11.083969,14.183207,-34.656490
0.760254,0.172607,0.798340,-11.343512,14.106871,-36.259541
0.742920,0.175293,0.807129,-11.511451,13.740458,-37.923664
0.727295,0.172363,0.807373,-11.702291,13.305344,-38.709923
0.734375,0.175293,0.803223,-10.557252,15.389313,-38.496181
0.751221,0.171143,0.805664,-8.534351,18.480917,-39.030533
0.775391,0.167969,0.806885,-7.694656,21.236641,-40.954197
0.783447,0.166992,0.794189,-8.564885,22.618320,-44.114502
0.774414,0.180664,0.786621,-9.603053,24.122137,-46.122139
0.773193,0.182861,0.784668,-10.488549,24.587786,-47.946564
0.768799,0.170410,0.784424,-10.442748,25.229008,-50.022900
0.771729,0.171875,0.784912,-10.213740,25.137405,-52.221375
0.764893,0.172607,0.799805,-9.122137,24.931297,-54.045803
0.777588,0.169434,0.798584,-8.206107,25.389313,-56.152672
0.793213,0.161865,0.800049,-8.099236,26.862595,-60.274811
0.812744,0.159180,0.808838,-8.488549,28.625954,-64.465652
0.801758,0.156738,0.817139,-8.259542,30.458015,-67.549622
0.785400,0.157715,0.826172,-7.755725,31.435114,-68.900764
0.791748,0.147217,0.821045,-7.320611,32.282444,-71.045799
0.781738,0.156494,0.820801,-6.687023,34.450382,-72.816795
0.752441,0.161377,0.812988,-6.259542,35.213741,-71.595421
0.723633,0.166504,0.804443,-6.824428,35.328243,-69.358780
0.705322,0.161621,0.803467,-7.435114,36.251907,-66.870232
0.692871,0.163330,0.812256,-7.702290,36.969467,-63.412212
0.676758,0.164062,0.805176,-7.236641,36.366413,-59.633587
0.687256,0.158691,0.800293,-6.740458,36.534351,-57.175571
0.714355,0.154785,0.807861,-6.458015,34.328243,-58.053436
0.730713,0.156494,0.811035,-6.671756,32.259541,-60.916031
0.733154,0.157227,0.807373,-6.702290,30.916031,-63.541985
0.716064,0.166504,0.794678,-7.488550,28.419847,-65.404579
0.674316,0.176514,0.785645,-7.480916,25.000000,-65.000000
0.653076,0.180176,0.794922,-6.793893,21.763359,-61.748093
0.652832,0.177734,0.812012,-5.503817,21.396946,-57.389313
0.649902,0.171387,0.811768,-4.816794,22.442749,-53.137405
0.656006,0.164307,0.827393,-4.709924,22.900763,-49.564884
0.677002,0.156006,0.821289,-4.526718,23.923664,-47.748093
0.694336,0.153076,0.809570,-4.442748,23.229008,-48.885498
0.728027,0.178955,0.785156,-7.412214,26.007633,-48.641220
0.699951,0.144531,0.799561,-9.343512,21.648855,-50.916031
0.690918,0.148926,0.801758,-9.664123,18.465649,-53.198475
0.687500,0.151855,0.798584,-10.137404,13.541985,-53.824429
0.684082,0.151367,0.803955,-8.328244,10.442748,-54.740459
0.792236,0.169922,0.865479,-31.290077,-3.335878,-55.404579
0.761719,0.093262,0.842041,-11.641221,42.511452,-56.633587
0.594238,0.139648,0.815918,-5.534351,-1.068702,-55.564884
0.733887,0.179443,0.783936,-5.534351,11.625955,-53.465649
0.693604,0.174072,0.767822,-9.068703,13.389313,-52.969467
0.699219,0.188721,0.772217,-13.206107,11.206107,-52.870228
0.719971,0.173584,0.765381,-17.320610,19.038168,-53.725189
0.707031,0.166748,0.769043,-15.862596,23.687023,-53.358780
0.683594,0.155273,0.764648,-15.603053,17.328245,-52.946564
0.717285,0.172852,0.753662,-19.916031,25.938931,-55.244274
0.680420,0.156738,0.775635,-20.977098,19.412214,-56.267174
0.676758,0.146729,0.763916,-21.534351,14.557252,-57.496181
0.716064,0.148438,0.749268,-20.709923,14.122137,-58.366413
0.698730,0.142822,0.775879,-18.320610,14.595420,-59.412212
0.683594,0.137207,0.766846,-16.938931,14.534351,-58.725189
0.682373,0.142334,0.772705,-17.320610,15.045801,-57.229008
0.673828,0.128906,0.772949,-17.526718,13.984733,-57.122139
0.677734,0.126709,0.779785,-17.412214,11.137404,-57.007633
0.667969,0.122803,0.775391,-15.847328,12.000000,-55.809162
0.662109,0.110596,0.787354,-13.870229,10.160305,-52.488548
0.662354,0.110107,0.812988,-12.198473,11.236641,-49.473282
0.662354,0.097900,0.818359,-10.183207,12.190840,-47.297710
0.665527,0.123779,0.806152,-9.809160,12.618320,-44.625954
0.692383,0.121338,0.803711,-10.992367,13.923664,-43.236641
0.707520,0.117676,0.799561,-10.732824,16.603054,-42.320610
0.715820,0.119385,0.791504,-10.175572,16.175573,-41.091602
0.727051,0.133057,0.777100,-10.526717,18.068703,-40.748093
0.702881,0.134033,0.781250,-10.580153,17.687023,-40.793892
0.719971,0.129883,0.756104,-9.969465,20.885496,-41.946564
0.683838,0.140381,0.795654,-10.396947,17.450382,-40.519085
0.666748,0.128418,0.772705,-9.603053,15.290076,-40.022900
0.681641,0.123535,0.789795,-7.572519,13.206107,-38.946564
0.690430,0.111328,0.813965,-4.312977,14.916031,-37.832062
0.681152,0.112549,0.814941,-2.694656,15.366412,-37.183205
0.675293,0.116455,0.812988,-1.877863,15.938931,-35.030533
0.668945,0.119141,0.795654,-2.038168,16.290077,-33.473282
0.688232,0.117188,0.802246,-1.389313,18.381680,-32.954197
0.677734,0.125488,0.793701,-0.885496,17.488550,-32.679390
0.710205,0.123535,0.775146,-0.564885,17.007633,-33.259541
0.708984,0.122070,0.776855,-1.419847,15.809160,-34.526718
0.709229,0.117920,0.780518,-1.519084,16.770992,-35.190838
0.702881,0.126709,0.791016,-0.885496,15.213740,-36.251907
0.714844,0.129150,0.792725,0.961832,11.419847,-36.801525
0.719482,0.102295,0.830322,5.030534,19.687023,-38.534351
0.682861,0.125244,0.843506,1.442748,12.343512,-38.847328
0.731689,0.125488,0.826660,1.763359,15.389313,-39.648853
0.704102,0.108887,0.792725,4.236641,10.694656,-41.076336
0.718262,0.100098,0.833008,4.839694,14.511451,-42.954197
0.696289,0.112549,0.816162,5.435114,10.832061,-44.717556
0.711426,0.107422,0.796143,7.687023,7.221374,-46.038166
0.710205,0.126709,0.807617,7.183206,3.664122,-46.847328
0.711426,0.133789,0.783447,4.977099,5.374046,-46.862595
0.722656,0.168457,0.790039,2.587786,9.503817,-44.587788
0.697266,0.178467,0.781738,1.160305,9.244275,-40.938931
0.719971,0.188477,0.766113,-1.412214,12.633588,-38.129772
0.727295,0.187988,0.771240,-6.534351,14.549619,-37.091602
0.750977,0.186768,0.762207,-9.816793,17.404581,-37.091602
0.739990,0.173828,0.768555,-10.854961,19.244274,-36.862595
0.726074,0.163330,0.782959,-10.847328,19.190840,-36.053436
0.707520,0.158447,0.795898,-11.954199,16.251909,-36.793892
0.704590,0.157715,0.797119,-12.236641,14.305344,-38.335876
0.711182,0.143066,0.795166,-11.305344,11.847328,-39.541985
0.716553,0.144287,0.813232,-11.320611,11.503817,-40.465649
0.717041,0.146973,0.792969,-11.687023,10.969465,-40.916031
0.728027,0.165283,0.800781,-12.740458,12.435115,-40.320610
0.740479,0.163330,0.789062,-13.290076,12.648855,-40.603054
0.735840,0.164551,0.784912,-14.664123,9.740458,-41.190838
0.757812,0.155518,0.796143,-16.389313,12.251908,-40.595421
0.716553,0.159912,0.794434,-17.572519,8.969465,-40.221375
0.727051,0.154785,0.765625,-17.595419,13.557252,-39.068703
0.704834,0.140381,0.776855,-18.091602,15.022901,-38.320610
0.712158,0.135742,0.799072,-17.656488,16.221375,-37.992367
0.708984,0.132568,0.792480,-16.854961,13.450381,-37.488548
0.699951,0.132568,0.808838,-15.450381,13.160305,-36.412212
0.719971,0.129150,0.815674,-13.969465,14.526717,-36.045803
0.731201,0.123779,0.807861,-13.557252,13.732824,-37.106869
0.741211,0.122559,0.792236,-12.870229,14.251908,-38.114502
0.722168,0.126221,0.790527,-11.893129,12.725191,-39.007633
0.719238,0.115723,0.776123,-10.854961,10.748092,-39.992367
0.712646,0.100098,0.780273,-10.931297,10.725191,-41.404579
0.697021,0.106934,0.773438,-11.862596,10.648855,-41.625954
0.693604,0.148438,0.729492,-11.908397,11.137404,-39.923664
0.723877,0.116211,0.808594,-11.908397,17.832062,-39.633587
0.673584,0.093994,0.785156,-10.984733,16.618320,-38.870228
0.665283,0.094971,0.770996,-11.404580,15.389313,-36.083969
0.664062,0.084717,0.776123,-11.732824,13.488549,-32.923664
0.671387,0.091553,0.783447,-12.198473,12.465649,-32.221375
0.694580,0.102783,0.769043,-13.160305,16.480917,-31.526718
0.691406,0.088623,0.772705,-10.969465,12.748092,-34.183205
0.676270,0.096436,0.807861,-7.618320,12.167939,-32.992367
0.665527,0.089844,0.789551,-5.473282,10.625955,-32.633587
0.651855,0.104004,0.758545,-5.244275,10.763359,-32.442749
0.660645,0.113037,0.753418,-4.801527,11.358779,-31.152672
0.670166,0.114258,0.729980,-5.106870,10.580153,-30.450382
0.669922,0.116699,0.708496,-6.633588,8.534351,-30.198473
0.696777,0.117188,0.704346,-7.687023,9.656488,-30.099237
0.697754,0.125732,0.735596,-7.572519,11.251908,-27.870230
0.673096,0.115479,0.760254,-8.236641,8.412213,-26.312977
0.706787,0.117920,0.775146,-11.992367,12.267176,-25.961832
0.712402,0.105225,0.802246,-12.290076,11.778625,-26.557251
0.717529,0.089355,0.791992,-6.801527,13.076336,-26.740458
0.707520,0.105713,0.807617,-3.786260,14.427481,-26.213741
0.713379,0.118408,0.768555,-5.793893,18.206106,-26.526718
0.728271,0.127441,0.776855,-7.969466,21.435114,-25.038168
0.730469,0.137939,0.768799,-8.793893,23.030535,-23.778625
0.743652,0.124512,0.755127,-10.076336,21.312977,-25.458015
0.759766,0.128662,0.765381,-12.061069,20.671755,-27.534351
0.742188,0.121826,0.746094,-13.175572,17.748091,-30.213741
0.738281,0.120605,0.766602,-14.625955,17.625954,-31.396946
0.720947,0.106934,0.780762,-15.198473,18.847328,-31.893129
0.712891,0.102783,0.778809,-16.374046,20.206106,-30.526718
0.704834,0.092285,0.782471,-17.389313,19.618320,-29.755726
0.718994,0.084473,0.785156,-16.755726,22.167938,-30.320610
0.700439,0.077393,0.828125,-14.267176,19.954199,-30.297710
0.691406,0.072266,0.817627,-12.175572,18.534351,-30.488550
0.714844,0.087158,0.803711,-11.885496,17.396946,-28.603054
0.718750,0.080322,0.807617,-10.954199,17.389313,-28.992367
0.709473,0.080566,0.775635,-12.328244,18.770992,-28.786259
0.740723,0.064941,0.761230,-13.664123,19.557251,-33.511452
0.685303,0.080811,0.781982,-12.778625,13.687023,-33.595421
0.660645,0.091309,0.773926,-12.984733,15.687023,-30.137405
0.670654,0.092285,0.743164,-13.656488,14.442748,-27.702290
0.687012,0.093506,0.764648,-15.687023,17.816793,-26.374046
0.682129,0.099365,0.754150,-17.969465,18.083969,-24.916031
0.695557,0.091064,0.745605,-18.114504,20.152672,-23.946566
0.693604,0.065430,0.782715,-16.503817,20.427481,-24.740458
0.661133,0.059814,0.792480,-12.801527,17.916031,-25.038168
0.660400,0.054932,0.786621,-10.961832,14.229008,-25.954199
0.662598,0.045654,0.768066,-10.908397,12.557252,-27.419847
0.694336,0.049072,0.770508,-11.000000,15.068703,-28.297710
0.677002,0.056152,0.754395,-11.580153,16.374046,-29.595419
0.672852,0.065186,0.737305,-13.534351,16.389313,-29.343512
0.674316,0.067139,0.752197,-14.801527,19.213741,-27.129770
0.656006,0.063232,0.763428,-13.129771,21.847328,-23.687023
0.649902,0.047852,0.767334,-11.221375,20.198473,-22.030535
0.649170,0.048584,0.754639,-11.198473,18.480917,-21.862595
0.669922,0.048584,0.737549,-9.488549,16.725191,-23.297710
0.681152,-0.007812,0.707031,-6.702290,17.099237,-27.809160
0.665283,0.076172,0.750000,-8.251908,13.358779,-23.167938
0.681396,0.064209,0.738281,-9.480916,13.351145,-21.488550
0.678711,0.053467,0.747314,-7.908397,15.221375,-20.679390
0.679199,0.060547,0.754883,-9.061069,14.229008,-21.343512
0.687256,0.083496,0.756592,-12.381680,14.221375,-22.183207
0.688477,0.072998,0.740479,-12.160305,15.053435,-23.290077
0.665527,0.065674,0.749268,-10.526717,14.770992,-22.412214
0.642822,0.075928,0.739258,-11.206107,12.885496,-21.290077
0.663330,0.078369,0.747314,-13.366412,13.595420,-20.076336
0.680664,0.090576,0.745605,-13.877863,15.541985,-18.274809
0.701416,0.089111,0.754150,-14.068703,15.778625,-18.015266
0.726318,0.090576,0.760254,-14.770992,19.015266,-18.641222
0.748291,0.095947,0.767822,-15.656488,19.198473,-19.267176
0.734619,0.081787,0.765869,-16.709923,18.145039,-21.931297
0.759766,0.063721,0.804688,-14.488549,17.427481,-25.740458
0.738037,0.060791,0.828613,-11.259542,17.404581,-28.076336
0.701172,0.042480,0.810547,-9.908397,16.297710,-29.404581
0.714600,0.058105,0.813477,-8.946565,16.480917,-30.030535
0.722900,0.073242,0.770020,-10.900764,19.725191,-28.480917
0.709229,0.084473,0.730469,-17.106871,19.083969,-26.770992
0.720947,0.088135,0.699707,-23.442749,22.778625,-25.664122
0.732910,0.077881,0.738037,-23.595419,26.022902,-24.534351
0.717773,0.041504,0.776367,-20.893129,29.625954,-23.679390
0.717529,0.036133,0.800049,-19.862595,29.671755,-24.618320
0.732910,0.040039,0.791260,-19.061069,27.671755,-27.824427
0.730469,0.010010,0.789795,-15.450381,26.664122,-32.358780
0.731445,-0.031982,0.803223,-9.419847,28.198473,-40.412212
0.676025,0.030762,0.823730,-7.854962,26.557251,-34.183205
0.673340,0.056641,0.747070,-9.732824,24.931297,-32.511452
0.663574,0.024170,0.751465,-13.183207,24.244274,-32.633587
0.658203,0.008789,0.728760,-15.984733,27.038168,-32.580154
0.665283,0.025635,0.691650,-20.152672,32.381680,-32.343510
0.639893,0.010254,0.682373,-23.053434,38.748093,-29.763359
0.588867,-0.027344,0.650635,-19.740458,46.366413,-34.061069
0.554199,-0.142334,0.737305,-9.465649,55.793892,-39.641220
0.588623,-0.040283,0.690918,-12.870229,59.587788,-31.458015
0.505859,0.026855,0.718262,-19.458015,43.083969,-25.801527
0.535889,0.003418,0.751709,-19.755726,32.358780,-24.358778
0.518555,0.000000,0.752930,-14.564885,27.564886,-21.679390
0.535889,0.018066,0.784424,-13.580153,31.229008,-18.564886
0.563232,-0.019531,0.812988,-7.137404,32.580154,-17.687023
0.546875,0.036621,0.773926,-0.778626,27.145039,-14.961832
0.561523,0.016602,0.771240,-2.389313,20.992367,-14.702291
0.570557,0.047363,0.728760,-7.763359,13.755725,-16.282442