acce_x,acce_y,acce_z,gyro_x,gyro_y,gyro_z
-0.032471,-0.417969,0.812988,-2.893130,-1.137405,-4.381680
-0.042725,-0.413818,0.822266,-0.702290,-3.603053,-5.145038
-0.048828,-0.407715,0.819824,1.305344,-4.198473,-4.496183
-0.047852,-0.405762,0.823975,2.229008,-2.824427,-3.450382
-0.041992,-0.397705,0.806885,2.763359,-0.427481,-1.885496
-0.032959,-0.399658,0.811523,2.167939,2.603053,-0.381679
-0.035400,-0.406250,0.803467,1.541985,4.198473,-0.038168
-0.033691,-0.411133,0.799805,1.312977,4.335878,-0.381679
-0.032715,-0.416260,0.800293,0.763359,3.053435,-1.648855
-0.037354,-0.404297,0.798584,0.709924,1.717557,-2.458015
-0.037109,-0.402344,0.790771,0.633588,-0.977099,-3.320611
-0.031738,-0.395020,0.779785,-0.419847,-1.809160,-3.900763
-0.028320,-0.385254,0.780518,-1.381679,-0.244275,-3.938931
-0.036133,-0.382812,0.779297,-1.954198,1.908397,-2.549618
-0.029785,-0.382812,0.779297,-2.465649,4.343512,-2.160305
-0.044922,-0.389893,0.784668,-2.549618,5.244275,-1.900763
-0.054932,-0.397705,0.791260,-2.259542,4.473282,-1.351145
-0.055420,-0.397217,0.792969,-1.641221,2.557252,-1.236641
-0.052002,-0.395020,0.790283,-0.748092,0.274809,-1.541985
-0.049072,-0.401367,0.802734,0.083969,-1.572519,-1.511450
-0.034424,-0.393555,0.793945,0.389313,-1.954198,-1.908397
-0.023438,-0.401123,0.806152,1.000000,-1.022901,-2.297710
-0.022705,-0.404053,0.812500,2.129771,-0.320611,-2.786260
-0.020752,-0.413330,0.821289,3.198473,-0.610687,-3.381679
-0.024902,-0.420410,0.831299,5.145038,-1.137405,-4.885496
-0.033203,-0.418701,0.832275,7.503817,-3.671756,-5.885496
-0.036133,-0.416260,0.831055,9.557252,-5.435114,-6.488550
-0.042236,-0.407715,0.825195,11.450381,-6.656488,-6.916030
-0.046631,-0.404297,0.813965,12.587787,-7.022901,-6.175572
-0.046143,-0.398193,0.789551,11.778625,-6.748092,-5.320611
-0.050781,-0.394287,0.776855,10.541985,-5.541985,-3.419847
-0.046143,-0.396729,0.790771,11.061069,-4.725191,-1.961832
-0.034424,-0.407471,0.818848,12.190840,-3.954198,-1.755725
-0.027100,-0.421143,0.841553,15.167939,-5.175572,-3.305344
-0.005615,-0.447266,0.880615,21.862595,-9.320611,-7.000000
0.003662,-0.469727,0.924316,32.694656,-16.923664,-12.122137
-0.018799,-0.471191,0.951904,45.137405,-24.351145,-17.290077
-0.021240,-0.471680,0.970703,55.832062,-30.328245,-22.221375
-0.036621,-0.454346,0.946289,66.870232,-35.694656,-24.389313
-0.057617,-0.431396,0.930420,75.244278,-42.221375,-24.519083
-0.051270,-0.389893,0.872559,76.244278,-45.488548,-23.732824
-0.032715,-0.347900,0.792236,73.908394,-42.671757,-21.412214
-0.011719,-0.311279,0.754395,71.282440,-36.702290,-16.458015
0.005859,-0.291504,0.732178,65.511452,-28.229008,-12.488549
0.014893,-0.263428,0.731201,57.587788,-16.480917,-8.709924
0.010742,-0.256836,0.720459,51.137405,-6.885496,-5.374046
-0.003418,-0.241699,0.710449,45.618320,-2.160305,-1.732824
-0.004395,-0.235107,0.707275,41.251907,0.977099,0.984733
-0.001465,-0.237305,0.728027,38.702290,1.687023,2.091603
0.007324,-0.232422,0.744385,38.076336,1.465649,2.503817
0.023926,-0.270752,0.806152,40.816795,1.343511,0.709924
0.002686,-0.266113,0.818848,42.007633,-4.007634,-1.099237
0.007568,-0.268555,0.815674,44.984734,-8.244275,-3.251908
0.009766,-0.255615,0.848389,48.984734,-9.847328,-2.603053
-0.000488,-0.273193,0.885254,51.221375,-15.954199,-3.503817
0.018799,-0.256592,0.873047,52.038166,-15.755725,-2.389313
0.026367,-0.256104,0.898438,53.954197,-11.503817,-1.213740
0.025391,-0.251221,0.920166,55.236641,-6.786260,1.603053
0.014160,-0.246338,0.924072,55.564884,-2.496183,5.419847
0.037598,-0.248535,0.926025,56.641220,3.526718,6.351145
0.036621,-0.251953,0.928223,56.770992,7.282443,6.816794
0.006104,-0.249756,0.907471,56.694656,2.160305,5.160306
0.007080,-0.250488,0.893555,58.541985,-1.961832,3.274809
0.023682,-0.224365,0.899902,62.740459,-7.389313,1.496183
0.018066,-0.223877,0.917480,68.534348,-11.931297,-0.618321
0.009766,-0.193604,0.883545,69.656487,-15.251908,-1.412214
-0.003906,-0.170410,0.866455,68.412216,-17.839695,-0.755725
0.018799,-0.151123,0.850586,67.923668,-14.740458,1.480916
0.025635,-0.142334,0.851318,68.114502,-11.893129,3.862595
0.042480,-0.123535,0.866699,74.969467,-4.419847,11.442748
0.064941,-0.099365,0.831299,63.175571,1.244275,9.916031
0.053223,-0.110596,0.855225,64.419846,7.053435,11.206107
0.016846,-0.106201,0.866943,63.709923,5.045802,10.427481
0.013428,-0.089844,0.878174,60.488548,0.595420,11.396947
0.030762,-0.067139,0.840088,56.206108,-2.870229,12.687023
0.036133,-0.053467,0.841553,51.312977,-4.633588,10.259542
0.087158,-0.068359,0.836670,50.343510,-5.061069,7.763359
0.092529,-0.061523,0.835449,47.900764,-3.259542,5.458015
0.092529,-0.034668,0.817871,44.221375,0.931298,5.183206
0.097412,-0.030518,0.844238,41.206108,7.969466,5.916030
0.091553,-0.055176,0.856445,41.580154,13.343512,5.511450
0.079834,-0.058350,0.875488,43.122139,18.801527,5.312977
0.064453,-0.070068,0.912109,45.839695,22.152672,5.702290
0.027588,-0.075195,0.937012,47.908398,20.480917,5.427481
-0.006348,-0.069580,0.935303,50.129772,16.244274,5.984733
-0.045166,-0.063477,0.914795,51.610687,8.381680,7.198473
-0.028076,-0.048096,0.891357,53.396946,0.740458,7.572519
0.006592,-0.045654,0.895264,56.412212,-4.007634,5.427481
0.010498,-0.025146,0.896484,60.511452,-3.091603,8.068703
0.008057,-0.016846,0.861572,55.564884,-7.419847,5.267176
0.001709,0.005127,0.871826,54.984734,-3.473282,6.931298
0.003418,0.010010,0.869629,56.152672,-0.519084,9.526717
0.020264,0.013916,0.883789,58.496181,4.404580,11.854961
0.041260,0.022217,0.877686,60.099236,13.229008,12.641221
0.059326,0.021240,0.873047,60.541985,20.610687,12.763359
0.050537,0.032715,0.893066,59.190838,25.961832,12.671756
0.005371,0.042725,0.891113,56.343510,21.816793,11.465649
-0.009521,0.060547,0.868164,54.809162,13.633588,10.351145
-0.010742,0.053711,0.864258,57.351147,4.748092,9.251908
-0.000977,0.059570,0.875977,61.206108,-2.473282,9.083969
0.016113,0.069824,0.881104,63.099236,-3.473282,9.198473
0.020020,0.082031,0.868652,63.717556,-1.167939,9.114504
0.022949,0.084229,0.856201,64.610687,3.854962,10.206107
0.029785,0.098145,0.850342,65.374046,8.213740,10.564885
0.043213,0.101074,0.835938,61.671757,11.145039,11.160305
0.021484,0.136963,0.825684,59.503819,17.213741,14.091603
0.021240,0.117188,0.837402,60.931297,20.854961,14.610687
0.018311,0.128174,0.839355,61.442749,21.206106,13.954199
-0.007324,0.136230,0.833496,60.106869,15.977099,12.145039
-0.010498,0.156250,0.819824,58.755726,10.961832,11.541985
-0.012939,0.150391,0.812988,60.259541,4.404580,10.412213
-0.006104,0.154053,0.828369,61.580154,-0.244275,9.854961
0.012939,0.156006,0.842773,62.732826,0.687023,9.396947
-0.011230,0.162598,0.836670,64.099236,-0.305344,9.656488
-0.001709,0.166992,0.847168,65.938934,3.725191,10.809160
0.002441,0.181641,0.846924,68.114502,8.893129,12.664123
0.012695,0.197021,0.842285,68.709923,18.152672,15.145039
0.013184,0.214844,0.825195,66.206108,21.450382,15.954199
0.015137,0.221191,0.812744,66.099236,22.389313,15.633588
0.026367,0.231201,0.799805,66.267174,20.213741,14.465649
0.008057,0.228760,0.828369,66.610687,13.580153,11.740458
0.005859,0.237793,0.825439,69.091606,7.312977,10.480916
0.012939,0.234375,0.829590,83.419846,1.480916,13.099236
0.020508,0.253418,0.827881,81.847328,-2.679389,5.916030
0.003418,0.242432,0.853760,89.068703,-1.427481,4.824428
0.004395,0.264648,0.853516,90.526718,0.916031,2.992366
-0.005859,0.276123,0.828857,92.847328,5.083970,4.099236
0.022705,0.302246,0.820801,95.557251,11.312977,5.236641
0.003662,0.322266,0.804932,95.190842,13.221375,6.534351
-0.010498,0.362793,0.780518,88.648857,11.229008,7.717557
-0.007080,0.355957,0.746582,83.137405,10.557252,6.809160
-0.024170,0.376953,0.745361,79.725189,2.793893,6.473282
-0.020752,0.391357,0.714355,77.839691,-2.389313,8.496183
-0.013672,0.405518,0.727295,74.435112,-6.229008,8.290076
-0.011230,0.417969,0.751465,76.717560,5.404580,8.519084
-0.052490,0.427246,0.796875,70.282440,-14.625955,6.458015
0.046631,0.449707,0.702148,67.068703,-7.770992,7.480916
0.036621,0.420410,0.739990,68.595421,0.984733,7.534351
0.028564,0.430908,0.749268,67.641220,6.282443,8.656488
0.003906,0.453857,0.746094,64.206108,11.946565,11.251908
0.003906,0.464355,0.729736,59.633587,16.251909,13.671756
-0.026855,0.460938,0.730957,57.427483,11.740458,14.267176
-0.033203,0.468750,0.718018,55.725189,7.000000,14.916031
-0.062012,0.484131,0.712402,51.419846,-1.816794,15.152672
-0.056885,0.494385,0.697510,45.251907,-11.969465,14.412213
-0.021973,0.488525,0.679199,41.793892,-14.664123,13.984733
0.019775,0.495605,0.674316,39.916031,-11.435115,14.557252
0.046387,0.497070,0.665283,38.641220,-5.984733,13.900764
0.064453,0.498535,0.662598,37.282444,2.358779,12.335877
0.081055,0.493652,0.681152,35.175571,9.106871,9.709924
0.056641,0.489990,0.708740,34.450382,14.267176,8.236641
0.029785,0.490967,0.730713,35.740459,16.732824,7.679389
-0.009521,0.489502,0.760498,38.900764,15.267176,9.435115
-0.004395,0.472900,0.777344,43.984734,14.770992,10.305344
-0.006836,0.480225,0.773193,48.618320,11.236641,10.435115
-0.029053,0.497070,0.756836,49.862595,2.992366,9.450381
-0.027100,0.502441,0.736328,50.015266,-1.595420,8.145039
-0.020752,0.522705,0.720459,49.389313,-7.190840,8.572519
-0.023438,0.527100,0.706055,48.175571,-12.267176,8.770992
0.000000,0.526367,0.695801,49.541985,-11.000000,8.572519
0.036377,0.500244,0.729492,57.030533,-3.007634,8.244275
0.031250,0.490723,0.760010,63.137405,-0.022901,6.862596
0.065674,0.490723,0.747070,66.832062,11.312977,7.480916
0.053467,0.485107,0.795410,71.893127,23.511450,8.748092
0.030273,0.478760,0.802246,79.190842,28.725191,10.656488
0.019775,0.490234,0.774658,87.213737,32.954197,13.312977
-0.007324,0.503906,0.775391,92.694656,32.045803,15.877863
-0.022949,0.528076,0.733643,97.160309,31.335878,18.702290
-0.045166,0.548096,0.718262,101.709923,26.106871,20.534351
-0.063965,0.582275,0.700684,104.290077,15.122137,21.190840
-0.061768,0.626709,0.628662,99.580154,6.038168,21.717558
-0.046875,0.673096,0.554443,92.595421,-0.282443,21.786259
-0.018311,0.698730,0.511719,84.587784,-4.748092,20.099237
0.029053,0.725586,0.464111,74.885498,-5.435114,18.702290
0.048096,0.740234,0.430420,65.526718,-4.145038,15.328244
0.057617,0.725830,0.432373,56.557251,-0.534351,13.465649
0.139404,0.702881,0.384766,54.000000,7.824428,12.648855
0.040771,0.709473,0.506836,48.862595,7.541985,10.030535
0.074219,0.696289,0.492432,47.679390,12.839695,8.870229
0.052734,0.681396,0.526123,48.648853,13.961832,8.419847
0.047119,0.689453,0.548828,48.671757,14.122137,7.847328
0.046387,0.681152,0.518066,47.160305,13.473283,8.099236
0.020020,0.692627,0.497070,48.068703,10.068703,8.007633
0.007812,0.722412,0.500244,45.038166,5.549618,8.366412
0.006348,0.728027,0.498535,42.335876,0.381679,8.099236
0.028076,0.721680,0.485107,42.381680,-2.893130,7.381680
0.030029,0.730225,0.483887,42.114502,-4.801527,6.488550
0.054199,0.732178,0.487793,39.404579,-4.992366,6.000000
0.082520,0.748779,0.445312,36.374046,-1.740458,5.557252
0.080811,0.738281,0.470947,33.374046,1.694656,3.977099
0.077881,0.708984,0.522217,34.053436,4.961832,2.862595
0.059814,0.704834,0.556152,34.267174,6.641222,3.320611
0.060547,0.702148,0.554688,37.183205,10.190840,3.381679
0.056641,0.697266,0.570068,40.488548,11.450381,3.870229
0.069580,0.703369,0.506104,46.167938,14.984733,5.870229
-0.005127,0.733643,0.582520,44.503819,0.916031,3.610687
0.048340,0.743652,0.496094,45.770992,4.870229,4.061069
0.015869,0.760498,0.498779,45.404579,-0.633588,4.870229
0.028076,0.777100,0.468994,42.625954,-2.038168,5.740458
0.048340,0.770996,0.446533,40.206108,2.335878,6.511450
0.023682,0.794922,0.430908,37.786259,-1.977099,6.664122
0.062988,0.780518,0.455811,35.610687,3.480916,6.961832
0.046387,0.777344,0.459229,33.320610,6.755725,7.122138
0.064697,0.759277,0.478760,33.900764,11.244275,7.412214
0.047607,0.770752,0.465088,35.938931,10.519084,6.885496
0.044922,0.760010,0.493652,37.480915,9.526717,6.450382
0.037354,0.768555,0.488281,38.603054,9.832061,6.641222
0.027100,0.773682,0.462158,40.061069,8.877863,7.656488
0.001953,0.786377,0.465088,40.389313,2.717557,8.473283
0.005615,0.807373,0.434326,37.885498,0.641221,10.473283
0.013672,0.808594,0.395752,36.473282,0.893130,11.580153
0.017578,0.818604,0.401367,35.404579,0.000000,12.496183
0.022217,0.822754,0.392578,32.511452,-1.129771,13.549619
0.061768,0.823975,0.403320,30.824427,4.251908,13.709924
0.074219,0.810791,0.399170,32.358780,7.167939,13.045801
0.074707,0.827393,0.411377,31.381680,5.343512,11.435115
0.061523,0.820068,0.417236,30.824427,1.541985,9.320611
0.069824,0.819580,0.411377,31.015266,3.106870,8.122137
0.076416,0.807617,0.427490,31.244274,5.244275,8.007633
0.061035,0.801514,0.429932,31.748091,7.488550,8.480916
0.053711,0.810791,0.432617,32.450382,9.709924,9.389313
0.038818,0.801025,0.418213,32.465649,8.473283,10.290076
0.018311,0.815430,0.415527,31.305344,6.282443,11.854961
0.020508,0.812012,0.402832,32.900764,9.557252,12.541985
-0.000244,0.804199,0.423584,33.122139,9.977099,14.656488
-0.013672,0.817139,0.454590,30.938931,8.610687,18.664122
0.005859,0.797607,0.435059,33.870228,14.358779,20.061069
-0.020508,0.798828,0.431396,37.572517,13.206107,21.916031
-0.033936,0.805420,0.474365,36.595421,7.358778,26.267176
-0.031006,0.810547,0.452637,35.236641,6.236641,30.450382
0.017822,0.818604,0.445801,35.557251,10.877863,33.793892
0.046143,0.815674,0.408203,39.465649,13.122137,32.977100
0.039307,0.849121,0.385010,41.923664,9.053435,31.717558
0.051514,0.875732,0.334229,41.503819,2.755725,31.473282
0.079590,0.893311,0.282715,39.183205,0.366412,31.015266
0.106934,0.899658,0.254395,36.251907,2.038168,28.374046
0.121582,0.890869,0.276123,32.320610,4.160306,25.664122
0.126953,0.884766,0.259277,30.511450,8.122137,23.053434
0.128906,0.892090,0.246582,29.114504,8.832061,21.053434
0.111572,0.886719,0.238281,27.687023,6.984733,18.282442
0.106689,0.886963,0.255127,23.839695,5.030534,17.167938
0.095947,0.873047,0.246094,20.870230,5.351145,17.465649
0.102051,0.854492,0.286133,18.625954,7.412214,19.450382
0.082031,0.852539,0.304932,18.923664,8.091603,21.580153
0.083740,0.840088,0.323730,20.091602,8.190840,23.641222
0.077881,0.842041,0.322510,20.694656,6.145038,26.106871
0.098145,0.857178,0.293213,21.526718,4.358778,28.167938
0.123779,0.873291,0.253906,22.496183,2.206107,26.854961
0.129150,0.878418,0.263184,21.503817,-3.519084,23.694656
0.145752,0.898682,0.237061,17.541985,-5.282443,21.572519
0.170410,0.899902,0.240723,12.931297,-0.022901,19.977098
0.191895,0.881348,0.223145,13.251908,9.381680,17.419847
0.197998,0.886475,0.257568,15.221375,13.152672,14.885496
0.153809,0.879150,0.290527,14.419847,9.473283,13.625955
0.155518,0.889648,0.303711,12.709924,8.954199,13.877863
0.156250,0.864746,0.306641,13.396947,10.816793,15.061069
0.150879,0.872070,0.333008,14.931297,8.870229,15.702291
0.149170,0.856934,0.334961,18.412214,6.938931,15.862596
0.146484,0.852783,0.326416,21.381680,6.778626,17.396946
0.138428,0.848633,0.329590,24.068703,5.969466,17.412214
0.139160,0.873779,0.274170,24.793894,4.190840,19.045801
0.143555,0.909424,0.241455,24.137405,1.969466,21.068703
0.158936,0.919922,0.214355,20.625954,1.587786,20.137405
0.198730,0.921875,0.186768,18.938931,5.923664,17.312977
0.182617,0.919678,0.196777,17.145039,5.679389,14.687023
0.175781,0.922363,0.205078,14.000000,5.183206,13.488549
0.192383,0.907715,0.175781,13.366412,8.793893,10.564885
0.170654,0.907471,0.213623,12.267176,8.923664,7.778626
0.138184,0.902588,0.259521,7.473282,5.770992,7.938931
0.121582,0.883057,0.271240,6.106870,5.709924,8.893129
0.123535,0.881592,0.269775,7.343512,7.099236,10.045801
0.131592,0.897461,0.255859,6.648855,5.610687,10.290076
0.111572,0.905029,0.265137,6.351145,3.786260,9.618320
0.117188,0.917480,0.216064,5.366412,3.267176,10.259542
0.133789,0.909424,0.214844,3.770992,4.480916,10.961832
0.139893,0.905518,0.219482,4.534351,3.625954,10.885496
0.149902,0.897949,0.223389,6.458015,2.977099,10.519084
0.150391,0.898926,0.206543,6.847328,3.213740,10.625955
0.163574,0.886475,0.234131,4.618320,5.679389,10.931297
0.177490,0.878418,0.243164,3.534351,9.832061,11.229008