acce_x,acce_y,acce_z,gyro_x,gyro_y,gyro_z
0.046143,-0.446533,0.818604,5.259542,-7.625954,-8.290076
0.040283,-0.445312,0.804932,7.603054,-7.335878,-8.473283
0.049561,-0.434082,0.818848,8.702291,-3.709924,-7.045802
0.054199,-0.435059,0.815674,8.160305,2.374046,-4.679389
0.031738,-0.434570,0.843262,7.015267,4.503817,-1.564885
0.021240,-0.444092,0.830322,7.412214,4.832061,1.030534
0.034912,-0.427979,0.819336,7.778626,6.519084,3.549618
0.039795,-0.431885,0.814941,7.557252,8.687023,4.442748
0.071045,-0.432617,0.807861,7.786260,10.038168,3.396947
0.085938,-0.449219,0.818604,9.137404,9.763359,1.473282
0.074219,-0.453369,0.842529,11.839695,8.358779,-1.000000
0.053711,-0.466309,0.851074,16.251909,4.603054,-3.145038
0.046875,-0.475098,0.864746,41.328243,-7.374046,-4.824428
-0.032227,-0.478516,0.792480,46.374046,-24.419847,-8.854961
0.070068,-0.440430,0.870850,44.648853,-15.038168,-8.366412
-0.017334,-0.456299,0.856934,51.213741,-24.267176,-6.656488
0.060547,-0.393799,0.857910,42.992367,-11.931297,-2.419847
0.018799,-0.408447,0.843750,40.549618,-7.801527,1.534351
0.054199,-0.383057,0.811035,38.954197,-2.458015,5.389313
0.083252,-0.375488,0.814453,35.984734,4.954198,7.099236
0.074707,-0.381104,0.818359,35.129772,7.160306,7.511450
0.056885,-0.383545,0.808105,35.778625,5.137404,7.267176
0.070312,-0.368896,0.804199,33.412212,7.816794,6.488550
0.056396,-0.386230,0.810303,33.931297,4.877862,4.435114
0.055176,-0.395996,0.830811,37.786259,-0.145038,1.450382
0.043945,-0.395752,0.846924,44.480915,-3.396947,-1.152672
0.034180,-0.391113,0.851562,51.961834,-7.167939,-2.793893
0.034668,-0.376465,0.840576,58.190838,-7.274809,-3.190840
0.037598,-0.347412,0.833740,57.038166,-0.824427,-0.381679
0.024658,-0.319336,0.802490,57.450382,4.564886,1.450382
0.052246,-0.305176,0.804688,52.503819,14.877863,3.954198
0.039062,-0.295654,0.798340,48.755726,19.366413,6.671756
0.052246,-0.301514,0.816895,46.175571,25.870230,8.503817
0.049316,-0.321045,0.831543,47.229008,28.671755,8.671756
0.027832,-0.339355,0.835693,51.343510,24.938931,7.297710
0.010010,-0.347168,0.833740,58.839695,16.923664,4.786260
-0.003418,-0.348877,0.866455,66.984734,4.900764,1.977099
0.000977,-0.345947,0.866943,74.755722,-4.870229,-1.603053
0.002441,-0.331543,0.874756,81.908394,-13.061069,-5.038168
-0.002441,-0.307617,0.866699,86.664124,-18.526718,-5.648855
-0.014648,-0.277588,0.855225,89.618324,-20.160305,-4.015267
0.009766,-0.245850,0.854004,90.877861,-15.870229,-1.832061
0.036621,-0.231689,0.853271,91.374046,-6.664122,0.564885
0.043457,-0.212158,0.854980,89.458015,2.404580,2.671756
0.054688,-0.197754,0.853027,86.541985,8.923664,4.137404
0.071533,-0.210449,0.849365,85.549622,15.656488,3.786260
0.061768,-0.201416,0.862061,85.847328,18.656488,2.320611
0.031006,-0.203613,0.839600,86.793892,14.015267,1.229008
0.008301,-0.185547,0.838867,86.022903,7.389313,-0.671756
-0.007812,-0.164307,0.824463,84.648857,2.694656,-1.954198
-0.013184,-0.137695,0.802734,83.633591,-1.320611,-1.671756
0.007080,-0.101562,0.776367,80.801529,-0.580153,-0.045802
0.026855,-0.057861,0.766357,75.725189,3.297710,1.297710
0.052246,-0.028564,0.744385,68.587784,10.274809,2.358779
0.074463,0.003906,0.745605,59.610687,17.412214,3.183206
0.088623,0.031738,0.733643,51.000000,24.351145,4.175572
0.104736,0.026855,0.752197,44.221375,29.648855,3.053435
0.093750,0.022705,0.782227,39.908398,29.839695,1.015267
0.067139,0.009521,0.811523,38.244274,26.152672,-0.763359
0.054199,-0.007812,0.828125,41.251907,21.992367,-1.541985
0.048828,-0.024414,0.859863,45.526718,17.366413,-1.938931
0.022217,-0.033691,0.885742,49.213741,11.977099,-2.412214
0.035645,-0.033203,0.897705,53.076336,11.656488,-2.526718
0.026855,-0.049072,0.913086,56.664124,11.305344,-2.931298
-0.000488,-0.050781,0.896240,58.832062,8.160305,-1.564885
0.026367,-0.040283,0.894531,57.702290,7.381680,-1.335878
0.040527,-0.031982,0.896484,53.030533,7.022901,-3.152672
0.050049,-0.023438,0.915039,48.519085,8.694656,-4.274809
0.040039,-0.030762,0.941406,48.435116,10.572519,-5.328244
0.039551,-0.030029,0.959961,49.786259,13.923664,-5.412214
0.008057,-0.024414,0.960449,52.305344,13.450381,-5.251908
0.000000,-0.012207,0.958740,56.473282,13.603053,-4.236641
-0.005859,-0.021729,0.962402,62.603054,15.389313,-2.549618
-0.028809,-0.011475,0.951660,69.503815,13.114504,-1.450382
-0.031738,0.008301,0.942871,73.709923,11.664123,-1.320611
-0.040039,0.019287,0.917725,74.083969,6.389313,-0.427481
-0.062012,0.049561,0.893311,71.259544,1.732824,2.213740
-0.046143,0.071533,0.864014,66.664124,3.236641,5.801527
-0.036377,0.073486,0.845703,61.656490,5.114504,7.648855
-0.021973,0.075684,0.836426,57.465649,6.335878,8.931297
-0.021240,0.088379,0.846924,54.091602,10.442748,9.832061
-0.002930,0.090820,0.827393,52.160305,15.396947,10.809160
-0.005371,0.104248,0.818604,49.343510,19.221375,10.061069
0.014160,0.105957,0.827881,50.343510,24.183207,8.832061
0.007568,0.112305,0.849854,50.862595,25.893129,7.312977
-0.004150,0.128418,0.861328,49.083969,25.290077,6.335878
-0.015625,0.137207,0.840088,49.832062,22.587786,6.496183
-0.020508,0.132324,0.857910,51.664124,17.801527,3.992366
-0.020508,0.151367,0.866943,51.099236,9.648855,1.290076
-0.033936,0.154297,0.856445,51.099236,0.435115,0.137405
-0.040039,0.156738,0.861572,53.641220,-3.931298,-1.022901
-0.036621,0.165771,0.813232,55.229008,-5.236641,-0.213740
-0.038086,0.183350,0.814453,52.580154,-2.106870,1.816794
-0.020020,0.178467,0.796387,49.732826,7.458015,4.633588
-0.027832,0.176025,0.823242,48.282444,13.885496,6.213740
-0.015137,0.160156,0.831055,49.000000,19.022902,5.877862
-0.030029,0.195557,0.816650,49.503819,19.641222,5.580153
-0.043701,0.183594,0.827393,48.404579,16.862595,4.480916
-0.025879,0.190918,0.834717,49.709923,14.137404,1.984733
-0.026611,0.187500,0.884033,53.702290,11.534351,-1.137405
-0.058594,0.199463,0.871582,56.748093,6.656488,-2.519084
-0.053467,0.207764,0.864746,58.580154,6.526718,-2.290076
-0.056885,0.210693,0.866211,59.793892,10.229008,-1.122137
-0.067139,0.229492,0.843018,61.267174,12.854961,2.839695
-0.056396,0.228760,0.838867,61.473282,18.732824,5.129771
-0.080566,0.233643,0.837402,60.648853,18.053434,6.404580
-0.112549,0.250732,0.806885,58.534351,12.038168,10.183207
-0.092041,0.265381,0.786621,56.351147,9.641221,13.778625
-0.057373,0.268066,0.799072,56.244274,10.297709,13.900764
-0.047119,0.280273,0.798584,56.770992,9.404580,12.549619
-0.030029,0.305420,0.776367,57.015266,12.183207,11.786260
0.001465,0.302246,0.792969,60.229008,18.198473,9.893129
0.006592,0.311279,0.816406,62.839695,28.427481,8.603053
-0.013672,0.323242,0.811768,63.587788,38.480915,9.473283
-0.074951,0.325195,0.774170,62.992367,36.541985,13.816793
-0.079102,0.336914,0.737793,61.580154,37.732826,18.938931
-0.081543,0.348877,0.791748,58.114502,38.603054,22.091602
-0.092041,0.350830,0.782471,54.839695,35.290077,23.435114
-0.083496,0.332275,0.766357,54.625954,33.335876,24.236641
-0.094482,0.331299,0.787109,55.908398,29.106871,24.923664
-0.094971,0.347900,0.833008,58.633587,27.290077,26.000000
-0.067627,0.324463,0.868408,66.770996,24.969465,24.526718
-0.043213,0.303467,0.821289,76.206108,23.251909,19.938931
-0.065674,0.354492,0.779053,77.480919,20.274809,18.175573
-0.062256,0.381348,0.725098,77.694656,20.221375,21.419847
-0.040039,0.398682,0.716553,77.679390,27.931297,21.656488
-0.023438,0.406006,0.719238,77.954201,32.541985,21.076336
-0.007324,0.411133,0.738037,78.381676,38.809162,18.824427
-0.038574,0.412598,0.726562,80.267174,40.511452,17.328245
-0.084229,0.426758,0.680664,81.679390,35.038166,16.839695
-0.081055,0.458252,0.646240,81.312981,32.984734,16.206106
-0.100586,0.465576,0.667236,79.931297,22.786259,14.687023
-0.070557,0.504639,0.672852,73.854965,17.038168,12.068703
-0.061768,0.505371,0.683594,69.931297,13.580153,8.847328
-0.050781,0.528809,0.684814,65.442749,11.480916,5.053435
-0.038818,0.544678,0.675049,60.091602,9.015267,0.404580
-0.039795,0.548340,0.681152,55.854961,8.488549,-3.045802
-0.068848,0.553955,0.667480,52.839695,6.343512,-4.328244
-0.083252,0.565674,0.647461,49.374046,7.320611,-3.412214
-0.099365,0.551270,0.666016,48.183205,9.389313,-2.335878
-0.101318,0.539551,0.693848,48.877861,11.229008,-1.618321
-0.096680,0.547852,0.707275,49.923664,13.129771,-1.038168
-0.128174,0.540283,0.694580,52.610687,12.068703,0.267176
-0.104980,0.554688,0.698486,56.114502,12.984733,3.488550
-0.111084,0.564453,0.691162,57.564884,16.374046,5.633588
-0.177734,0.650879,0.719238,70.229004,31.824427,9.664123
-0.170166,0.614258,0.640137,63.473282,13.183207,3.641221
-0.125732,0.566650,0.666260,63.801525,9.381680,5.648855
-0.128662,0.551270,0.672363,71.564888,11.893129,7.137404
-0.144775,0.574219,0.650879,72.564888,12.809160,8.053435
-0.157959,0.615967,0.593506,66.717560,13.931297,10.656488
-0.128906,0.617920,0.558594,61.984734,20.763359,13.114504
-0.096924,0.634033,0.579102,57.877861,25.458015,12.938931
-0.106201,0.649902,0.606934,52.465649,22.557251,11.122137
-0.094971,0.650391,0.608154,49.206108,18.374046,5.259542
-0.068848,0.706787,0.531982,44.167938,7.916030,7.755725
-0.032227,0.584229,0.638428,49.862595,14.534351,-7.381680
-0.086670,0.685791,0.607422,54.404579,14.488549,3.091603
-0.092285,0.654053,0.625977,56.541985,15.725191,4.374046
-0.085449,0.645996,0.601562,59.938931,19.488550,5.458015
-0.103760,0.657471,0.593506,61.992367,22.000000,6.320611
-0.151855,0.688721,0.553711,56.488548,17.687023,9.083969
-0.136475,0.686035,0.518066,53.190838,20.618320,3.297710
-0.174072,0.703125,0.526123,48.618320,10.396947,7.335878
-0.150635,0.698975,0.513672,42.511452,6.458015,7.633588
-0.140381,0.678955,0.524658,41.251907,4.625954,7.068702
-0.132568,0.669678,0.513672,41.419846,4.511450,5.916030
-0.137451,0.673828,0.503418,41.687023,1.519084,4.656488
-0.139893,0.686523,0.493408,41.557251,-3.015267,3.496183
-0.133545,0.685791,0.501221,41.534351,-1.297710,4.702290
-0.100586,0.685303,0.510254,43.045803,7.175572,6.007634
-0.110840,0.670410,0.535889,47.229008,13.160305,10.000000
-0.126709,0.664795,0.547363,48.061069,14.656488,11.496183
-0.125732,0.666260,0.534180,50.778625,19.519083,13.473283
-0.161133,0.680908,0.525879,50.267174,16.038168,15.412213
-0.159668,0.703369,0.507324,46.854961,14.549619,18.786259
-0.144775,0.712891,0.485840,43.832062,14.389313,20.748091
-0.136475,0.733398,0.466797,37.442749,11.274809,19.305344
-0.107666,0.740967,0.451904,32.427483,6.587786,17.671755
-0.105225,0.727051,0.453125,31.274809,-0.419847,14.038168
-0.093018,0.724609,0.479736,29.183207,-2.671756,10.847328
-0.098145,0.728271,0.447510,27.923664,-2.114504,9.244275
-0.107910,0.726318,0.461426,27.000000,1.244275,8.190840
-0.107910,0.712402,0.462402,26.122137,8.885496,8.061069
-0.123047,0.708740,0.475098,25.259542,13.893129,8.610687
-0.144043,0.722900,0.432861,26.282442,14.335877,10.923664
-0.135254,0.726318,0.451904,27.671755,17.877863,14.870229
-0.120850,0.730957,0.485596,29.114504,22.320610,17.770992
-0.132812,0.745117,0.500732,30.068703,21.282442,20.198473
-0.120361,0.753906,0.509766,30.900763,19.870230,22.488550
-0.122559,0.782227,0.483154,29.679390,16.557251,25.427481
-0.096924,0.789795,0.479492,29.793894,17.122137,26.358778
-0.081543,0.794922,0.477295,29.923664,17.366413,26.748091
-0.077637,0.789795,0.469238,30.419847,18.198473,25.221375
-0.067383,0.790771,0.453857,32.229008,19.404581,23.183207
-0.030273,0.803711,0.438965,34.984734,20.358778,20.793894
-0.037109,0.794189,0.443359,37.244274,21.145039,16.656488
-0.043701,0.802002,0.437012,37.488548,23.488550,15.007633
-0.036865,0.815186,0.440430,35.045803,28.557251,13.694656
-0.055908,0.827148,0.403076,32.122139,30.496183,12.374045
-0.083740,0.822021,0.397217,30.984734,28.312977,10.816793
-0.098145,0.823486,0.401611,29.770992,26.030535,11.053435
-0.107910,0.822754,0.402832,28.778625,21.312977,10.419847
-0.092285,0.824707,0.410400,29.488550,19.900763,9.625955
-0.087891,0.813232,0.399170,30.847328,19.496183,8.274809
-0.096680,0.831787,0.365234,31.000000,18.633587,8.213740
-0.093018,0.837402,0.347656,30.389313,17.816793,6.748092
-0.093018,0.826904,0.347412,28.954199,17.992367,5.961832
-0.100830,0.822998,0.371582,28.160305,17.877863,5.076336
-0.093506,0.827393,0.375732,25.961832,19.190840,5.992366
-0.105469,0.831055,0.367920,22.763359,18.816793,7.877862
-0.118652,0.827148,0.384033,21.244274,16.053434,9.259542
-0.129395,0.836670,0.378174,18.083969,9.312977,10.305344
-0.110352,0.844238,0.350342,17.824427,8.221375,11.564885
-0.087891,0.826416,0.364258,20.022902,8.106871,11.931297
-0.070068,0.813477,0.383545,22.175573,10.755725,10.839695
-0.080078,0.822754,0.379150,22.893129,9.977099,7.816794
-0.098877,0.830078,0.329346,22.702290,9.381680,7.000000
-0.107422,0.842285,0.311523,21.419847,9.961832,6.763359
-0.120117,0.822021,0.302734,20.396946,11.419847,6.427481
-0.122559,0.832764,0.292480,16.305344,12.526717,6.022901
-0.124023,0.835693,0.297119,12.061069,14.160305,6.893130
-0.116455,0.814697,0.360840,6.862596,16.450382,7.908397
-0.144775,0.802979,0.396729,3.595420,14.633588,9.061069
-0.137939,0.779297,0.405518,5.519084,15.526717,11.679389
-0.145020,0.783691,0.448975,4.954198,15.427481,14.541985
-0.166748,0.789795,0.492432,4.206107,10.244275,16.946566
-0.137939,0.776367,0.479248,8.778625,10.702291,20.435114
-0.106689,0.786133,0.489990,14.297709,13.000000,21.992367
-0.088867,0.792969,0.479736,20.053434,14.679389,22.519083
-0.066895,0.827637,0.441162,22.587786,14.763359,22.175573
-0.048096,0.839844,0.405273,27.274809,17.610687,21.694656
-0.032471,0.842041,0.352051,32.717556,22.977098,20.709923
-0.020020,0.878418,0.290039,36.984734,28.770992,19.358778
-0.012939,0.888916,0.277344,34.702290,32.229008,16.618320
-0.012451,0.904297,0.254639,31.503817,34.587788,13.396947
-0.017822,0.907471,0.218994,28.351145,36.778625,11.862596
-0.021484,0.878418,0.246582,26.114504,39.740459,11.839695
-0.026855,0.863281,0.305664,22.923664,41.122139,12.229008
-0.056152,0.845215,0.299316,24.267176,38.969467,14.183207
-0.050537,0.839600,0.332764,23.465649,36.572517,14.213740
-0.051514,0.841553,0.353271,24.694656,31.786259,16.755726
-0.067627,0.819092,0.299316,34.206108,26.480917,17.358778
-0.058105,0.847168,0.275391,39.091602,23.190840,18.091602
-0.069824,0.875488,0.219971,39.396946,17.854961,18.648855
-0.051514,0.902344,0.172852,38.091602,19.190840,19.580153
-0.051270,0.920410,0.119629,32.778625,22.290077,19.030535
-0.025879,0.946045,0.084473,24.610687,27.419847,18.358778
-0.023682,0.946289,0.135498,14.160305,28.534351,15.877863
-0.039551,0.926514,0.149414,12.091603,26.816793,13.916031
-0.008301,0.906494,0.222900,10.343512,28.671755,12.358779
-0.018066,0.901367,0.290527,5.473282,24.358778,9.312977
-0.031982,0.891602,0.277344,8.122137,15.038168,7.725191
-0.034668,0.872803,0.266357,12.992367,11.076336,3.824427
-0.085938,0.892334,0.288574,10.221375,1.480916,2.122137
-0.082031,0.882324,0.283203,10.160305,-1.290076,4.312977
-0.081543,0.881836,0.243164,12.396947,4.320611,8.618320
-0.067871,0.886719,0.254883,13.099236,6.282443,10.412213
-0.076172,0.888916,0.215820,15.190840,4.694656,12.923664
-0.062500,0.900146,0.192139,17.687023,5.885496,15.282443
-0.048096,0.913086,0.180664,19.366413,4.236641,13.847328
-0.013428,0.936279,0.137695,21.045801,12.427481,18.389313
-0.007324,0.937256,0.115967,22.312977,14.274809,17.717558
0.016602,0.919678,0.179199,17.938931,19.183207,15.236641
0.004883,0.903809,0.253174,11.328244,23.923664,11.358779
-0.012939,0.873047,0.246338,10.755725,29.206106,8.671756
-0.032959,0.856445,0.240967,13.000000,28.793894,7.893130
-0.090576,0.856934,0.246582,13.526717,21.938931,7.549618
-0.098145,0.843994,0.248047,17.183207,17.396946,8.419847
-0.115479,0.876465,0.195801,21.274809,12.847328,11.793893
-0.100830,0.875000,0.185791,23.938931,8.893129,15.419847
-0.087891,0.903320,0.153564,23.984734,8.557252,17.969465
-0.076660,0.930176,0.127686,20.435114,8.656488,20.335878
-0.053223,0.937256,0.130615,13.816793,12.755725,21.213741
-0.023926,0.941406,0.112305,6.961832,19.198473,19.862595
-0.011719,0.935791,0.102783,2.908397,23.534351,18.946566
-0.024658,0.899414,0.168457,1.083969,26.335878,16.793894
-0.036621,0.881348,0.236816,-0.977099,27.603054,14.160305
-0.057861,0.883789,0.246338,0.221374,23.305344,12.465649