acce_x,acce_y,acce_z,gyro_x,gyro_y,gyro_z
0.098633,-0.263916,0.697998,11.213740,1.603053,1.893130
0.106689,-0.275146,0.692871,5.122138,8.312977,4.114504
0.126953,-0.300781,0.743652,1.916031,10.824428,2.000000
0.127686,-0.312012,0.793457,2.755725,8.045801,-1.977099
0.112305,-0.330322,0.845703,7.450382,1.450382,-6.496183
0.113037,-0.347656,0.899902,15.816793,-6.053435,-11.305344
0.104736,-0.364258,0.962158,25.580153,-16.954199,-16.603054
0.098145,-0.360596,0.974854,35.862595,-25.740458,-20.297710
0.090576,-0.346191,0.961426,42.236641,-32.549618,-21.320610
0.086426,-0.331787,0.916504,46.213741,-34.404579,-19.763359
0.087891,-0.314453,0.890381,47.290077,-31.114504,-16.435114
0.093018,-0.291748,0.859375,44.900764,-24.335878,-10.877863
0.113770,-0.267822,0.830566,40.419846,-13.358779,-5.488550
0.130127,-0.269287,0.784180,35.229008,-3.259542,-1.862595
0.127930,-0.239014,0.741455,28.488550,4.076336,0.893130
0.138916,-0.225098,0.707764,20.343512,9.977099,3.244275
0.133789,-0.221680,0.704346,13.083969,12.786260,4.068702
0.139648,-0.215088,0.713379,7.954198,14.038168,3.862595
0.125732,-0.226074,0.736816,5.763359,12.381680,2.595420
0.127197,-0.256104,0.785156,6.587786,9.236641,0.221374
0.136475,-0.272949,0.853516,11.709924,3.755725,-4.709924
0.121826,-0.296875,0.894287,20.175573,-3.877863,-10.312977
0.118652,-0.307129,0.935059,31.343512,-10.007633,-14.541985
0.095947,-0.306152,0.958008,40.572517,-15.083969,-16.595419
0.086914,-0.291992,0.955078,47.282444,-18.778625,-16.786259
0.088135,-0.279053,0.946289,52.000000,-19.152672,-14.702291
0.098389,-0.275635,0.929688,54.557251,-16.251909,-11.450381
0.110107,-0.260498,0.915039,56.083969,-10.442748,-7.221374
0.122803,-0.237549,0.897461,54.908398,-4.931298,-4.083970
0.162354,-0.228027,0.854004,53.259541,-0.106870,-3.793893
0.180176,-0.228516,0.847656,53.320610,2.847328,-6.885496
0.187744,-0.213623,0.843506,53.603054,2.236641,-10.671756
0.179932,-0.217529,0.841309,54.938931,-0.404580,-14.938931
0.161133,-0.217285,0.873291,59.045803,-5.061069,-19.259542
0.126953,-0.203369,0.887695,63.938931,-10.320611,-20.404581
0.117188,-0.199219,0.889648,70.099236,-12.404580,-19.862595
0.118896,-0.186523,0.921143,75.297707,-10.938931,-19.122137
0.112061,-0.176025,0.943115,77.893127,-7.534351,-16.190840
0.103516,-0.154053,0.923096,77.671753,-2.694656,-12.244275
0.110352,-0.145752,0.892334,76.877861,3.076336,-7.297710
0.133057,-0.144775,0.893799,79.564888,5.893130,-6.114504
0.150146,-0.146484,0.912598,82.526718,6.519084,-8.320611
0.154541,-0.135498,0.924072,84.183205,4.099236,-11.236641
0.160889,-0.119141,0.902100,83.702293,3.396947,-12.427481
0.159180,-0.102539,0.876953,83.801529,2.526718,-13.190840
0.142822,-0.080811,0.870605,82.076332,2.793893,-12.251908
0.141846,-0.063721,0.871338,78.717560,4.908397,-10.145039
0.139404,-0.061279,0.865479,76.801529,7.511450,-9.343512
0.120605,-0.044678,0.865967,75.977097,7.717557,-8.259542
0.126709,-0.044678,0.867432,76.648857,8.954199,-7.435114
0.135254,-0.038330,0.874512,78.832062,11.900764,-7.381680
0.126221,-0.031250,0.877930,80.404579,11.770992,-7.183206
0.130371,-0.022217,0.870117,80.793892,10.717557,-6.977099
0.126465,-0.003418,0.865967,80.236641,9.244275,-7.351145
0.162109,0.009766,0.868652,81.145035,13.175572,-7.946565
0.149170,0.034180,0.886475,81.007637,13.618320,-8.022901
0.139648,0.046387,0.889404,78.557251,16.328245,-6.603054
0.137695,0.056396,0.858154,76.389313,21.954199,-4.824428
0.116455,0.054199,0.842529,77.656487,17.435114,-5.045802
0.116211,0.062988,0.863281,79.221375,13.381680,-6.702290
0.127197,0.075684,0.843750,79.183205,12.854961,-7.870229
0.110840,0.103027,0.833252,77.381676,10.862596,-8.000000
0.110840,0.114258,0.824707,76.038170,10.282443,-7.007634
0.097168,0.125000,0.834961,73.618324,7.885496,-6.587786
0.111572,0.137695,0.800049,69.229004,10.557252,-5.374046
0.111328,0.152100,0.795898,63.511452,8.938931,-4.961832
0.112305,0.173584,0.786621,57.687023,8.564885,-4.641222
0.121094,0.167725,0.791260,56.351147,8.778625,-4.885496
0.120361,0.163086,0.812988,57.335876,10.473283,-6.068702
0.124756,0.168945,0.816650,56.801525,12.870229,-5.961832
0.102295,0.187500,0.814697,53.007633,14.404580,-4.061069
0.099609,0.194092,0.807861,49.083969,16.923664,-1.923664
0.102295,0.183594,0.816406,48.259541,16.076336,-1.908397
0.099609,0.179688,0.822266,48.435116,13.473283,-3.633588
0.116211,0.179688,0.842773,49.580154,14.229008,-4.801527
0.093750,0.191650,0.837402,50.587788,12.427481,-6.007634
0.087646,0.202148,0.844482,49.862595,10.282443,-5.335878
0.099854,0.202148,0.841797,49.610687,10.786260,-5.374046
0.103271,0.192871,0.861572,52.366413,11.465649,-6.396946
0.114502,0.188965,0.881348,58.572517,15.015267,-7.847328
0.093506,0.189941,0.892334,63.763359,15.725191,-7.610687
0.066650,0.216553,0.894043,64.190842,11.595420,-5.931298
0.038818,0.229980,0.869873,64.938934,8.251908,-3.564885
0.027100,0.230713,0.841553,65.213737,8.648855,-0.106870
0.054688,0.243652,0.843750,66.389313,9.885496,2.564885
0.071045,0.239502,0.831055,69.206108,12.022901,2.992366
0.064697,0.261963,0.865723,70.129768,11.328244,2.992366
0.084229,0.272217,0.835938,70.572517,15.564885,4.038168
0.082031,0.281494,0.826172,72.442749,17.778625,4.992366
0.075928,0.294434,0.826660,73.312981,17.786259,4.519084
0.056152,0.305908,0.807373,75.381676,11.618320,3.274809
0.062744,0.405273,0.718750,76.312981,14.656488,6.290076
0.048828,0.332764,0.810303,79.671753,12.106871,6.129771
0.051270,0.324707,0.778076,81.847328,10.358779,6.099236
0.067871,0.356689,0.771973,79.412216,11.473283,8.137404
0.084717,0.360107,0.758057,77.312981,13.183207,8.229008
0.086426,0.367676,0.765869,76.923668,10.572519,6.732824
0.082031,0.359375,0.790039,78.908394,8.381680,4.076336
0.081299,0.368164,0.789795,78.908394,9.167939,3.435115
0.059814,0.397461,0.763672,77.816795,10.274809,4.671756
0.055420,0.408936,0.752441,74.641220,9.381680,6.091603
0.055664,0.410889,0.750244,73.244278,8.465649,6.152672
0.081787,0.410156,0.739258,74.152672,10.083969,5.206107
0.082520,0.418945,0.747070,76.847328,9.152672,2.480916
0.063477,0.431152,0.740723,75.603050,4.091603,-0.076336
0.080078,0.438721,0.716064,75.267174,6.641222,-2.000000
0.086914,0.459473,0.721436,74.351143,10.213740,-1.832061
0.059570,0.476318,0.716797,73.595421,6.450382,-1.664122
0.055420,0.489990,0.704590,73.534348,3.091603,-2.709924
0.071289,0.519043,0.693604,70.206108,1.770992,-2.977099
0.072510,0.518799,0.653320,67.152672,2.389313,-2.801527
0.069092,0.546143,0.630615,60.618320,4.236641,-0.656489
0.087402,0.543457,0.646484,54.122139,6.587786,-0.450382
0.096924,0.545166,0.639160,52.877861,8.068703,-2.167939
0.084229,0.534424,0.644043,52.190838,7.053435,-4.038168
0.060059,0.546387,0.635742,48.465649,7.038168,-3.229008
0.067871,0.556396,0.644287,45.473282,8.580153,-1.595420
0.071289,0.549805,0.659424,44.114502,10.961832,-1.702290
0.067383,0.556641,0.652344,40.916031,11.702291,-1.267176
0.065674,0.560059,0.628906,38.160305,12.282443,-0.488550
0.058105,0.579346,0.628174,36.503819,7.801527,-0.442748
0.051025,0.573730,0.635742,35.595421,3.740458,-0.992366
0.062500,0.563477,0.649658,36.679390,1.167939,-2.114504
0.065674,0.566162,0.663574,36.557251,2.549618,-1.740458
0.079834,0.571533,0.685059,34.458015,7.633588,-1.381679
0.083496,0.566406,0.688721,34.381680,14.725191,-2.015267
0.073730,0.564941,0.732666,36.748093,15.160305,-2.366412
0.043457,0.569336,0.708252,39.526718,13.106871,-1.862595
0.023438,0.585693,0.685547,39.839695,8.931297,-1.114504
0.003418,0.601807,0.653809,39.091602,3.740458,-0.358779
0.013184,0.601807,0.645996,38.351147,-0.694656,0.748092
0.031738,0.605713,0.634033,39.198475,-2.900763,-0.282443
0.046631,0.602295,0.642090,37.801525,-3.587786,-0.908397
0.072021,0.618164,0.635498,35.458015,1.954198,-0.183206
0.093994,0.593018,0.648926,36.320610,11.274809,-1.687023
0.083252,0.588623,0.666748,37.839695,15.290076,-3.610687
0.060059,0.598877,0.664551,37.641220,17.633587,-3.160305
0.050537,0.609131,0.651611,37.938931,18.885496,-2.167939
0.031738,0.609131,0.645996,40.419846,18.366413,-1.412214
0.014648,0.609375,0.660645,42.725189,14.007633,-0.557252
0.022949,0.611084,0.641357,45.229008,11.030535,-0.358779
0.030762,0.612305,0.649658,48.557251,11.038168,-0.007634
0.026123,0.616943,0.639160,49.725189,9.931297,1.190840
0.027100,0.637695,0.624023,47.946564,11.358779,1.633588
0.058838,0.646729,0.614990,46.419846,15.229008,1.198473
0.030518,0.657471,0.596191,44.793892,15.824428,1.916031
0.025146,0.664307,0.586914,42.503819,18.404581,3.664122
0.037598,0.674561,0.558838,41.458015,18.809160,3.946565
0.038818,0.661133,0.570068,43.145039,15.916031,1.839695
0.031494,0.670654,0.558350,43.404579,16.183207,2.129771
0.037354,0.669434,0.552246,43.549618,20.442749,3.213740
0.023193,0.678223,0.552979,43.358780,19.564886,3.190840
0.008301,0.675537,0.555176,42.015266,17.717558,3.541985
0.011230,0.673096,0.540527,40.946564,20.076336,4.595420
-0.000732,0.682861,0.541260,39.213741,21.549618,6.267176
-0.005615,0.682861,0.544922,37.946564,22.977098,7.587786
-0.004395,0.677246,0.531982,38.564884,21.786259,8.175572
-0.009521,0.693115,0.537109,38.480915,18.541985,9.160305
-0.017822,0.702148,0.522705,37.267174,16.748091,9.832061
-0.022705,0.702637,0.510010,35.954197,15.618320,10.847328
-0.010010,0.717773,0.510986,35.847328,12.809160,11.969465
0.008301,0.721680,0.522217,34.091602,10.297709,12.816793
0.022217,0.737061,0.498535,32.000000,11.206107,13.160305
0.043213,0.740479,0.500244,31.732824,11.847328,11.984733
0.063232,0.737061,0.530273,31.816793,10.732824,9.511451
0.071045,0.744385,0.523682,32.198475,12.961832,8.129771
0.066162,0.753662,0.518555,31.625954,13.343512,7.893130
0.052002,0.751465,0.519287,31.870230,11.931297,6.458015
0.070312,0.750488,0.542969,31.763359,10.824428,4.664122
0.067627,0.751465,0.525635,33.099236,7.488550,2.679389
0.068359,0.754883,0.536133,34.351147,6.381680,0.748092
0.073242,0.772217,0.520264,33.618320,7.916030,0.312977
0.048340,0.775879,0.490479,32.137405,7.343512,-0.175573
0.054199,0.782227,0.482666,29.648855,8.030535,-0.679389
0.042236,0.766846,0.494629,29.229008,9.763359,-1.549618
0.033691,0.764893,0.496582,28.786259,10.236641,-1.351145
0.021484,0.760010,0.517090,29.282442,11.786260,-0.572519
0.015625,0.748779,0.515381,30.580153,15.702291,1.526718
0.000488,0.755127,0.516602,32.977100,14.526717,3.450382
-0.023682,0.764648,0.506836,33.229008,11.404580,5.755725
0.002197,0.761963,0.495117,33.816795,12.687023,8.007633
-0.007080,0.780518,0.486816,34.442749,10.198473,10.122137
-0.003418,0.789307,0.454590,34.442749,6.076336,10.755725
0.003174,0.789795,0.433838,31.732824,-1.603053,9.114504
0.023193,0.820312,0.414062,27.213741,-3.725191,8.809160
0.051514,0.814697,0.384766,24.709923,-2.664122,8.206107
0.085693,0.811279,0.413574,22.954199,0.916031,5.885496
0.092529,0.820557,0.450684,21.053434,3.076336,3.496183
0.072754,0.802734,0.431885,22.244274,2.305344,1.229008
0.045166,0.799072,0.425049,22.923664,3.282443,1.564885
0.053955,0.806641,0.410156,23.656488,12.038168,3.992366
0.027832,0.778564,0.441162,24.381680,14.038168,4.229008
0.007324,0.788574,0.454102,23.809160,14.381680,5.610687
0.004150,0.792725,0.447510,24.832062,15.061069,7.679389
-0.004395,0.792480,0.447998,26.114504,15.129771,9.320611
-0.019287,0.810303,0.439209,24.389313,13.099236,12.251908
-0.011230,0.815674,0.428467,22.969465,9.580153,14.916031
0.008789,0.821777,0.424561,22.984734,5.793893,15.648855
0.031250,0.806396,0.428467,25.374046,6.045802,15.916031
0.041748,0.810059,0.449707,26.122137,3.816794,15.618320
0.062256,0.802002,0.449707,26.480917,7.106870,14.908397
0.095459,0.800293,0.455811,27.328245,8.832061,14.274809
0.094238,0.795898,0.462891,30.007633,12.755725,13.488549
0.085693,0.796143,0.471680,31.068703,13.717557,11.473283
0.075439,0.802734,0.447510,32.809162,12.732824,9.961832
0.059570,0.808594,0.433105,37.580154,13.473283,10.358779
0.050293,0.828613,0.407715,41.580154,11.068703,11.908397
0.035400,0.853516,0.363037,40.977100,9.099236,14.969465
0.042725,0.856689,0.351318,39.786259,6.847328,14.129771
0.050781,0.855225,0.351074,36.534351,3.534351,10.931297
0.074951,0.853027,0.330322,34.725189,3.068702,7.396946
0.079590,0.855225,0.340820,31.511450,4.274809,5.290076
0.078369,0.840576,0.348633,28.641222,4.992366,4.145038
0.075195,0.832764,0.353760,27.381680,4.809160,2.282443
0.062012,0.820312,0.364258,26.541985,5.893130,1.580153
0.051758,0.812012,0.364258,26.709923,7.419847,2.656489
0.037842,0.807129,0.360840,28.167938,12.625955,3.419847
0.025635,0.811279,0.369629,27.190840,13.946565,5.137404
0.022705,0.819336,0.332520,24.977098,10.511451,6.763359
0.044922,0.819092,0.376953,23.412214,15.671756,7.251908
0.035400,0.817627,0.378906,25.244274,16.809160,7.312977
0.015381,0.820312,0.366211,29.610687,13.480916,7.832061
-0.007812,0.840332,0.334229,28.916031,7.992366,8.511451
0.006592,0.854248,0.314453,26.412214,4.175572,10.099236
0.027100,0.847656,0.326416,25.625954,5.221374,10.709924
0.044434,0.846680,0.340332,26.045801,5.442748,10.977099
0.042969,0.853516,0.331055,26.977098,2.977099,11.488549
0.054443,0.849609,0.323730,28.534351,2.984733,10.992367
0.054688,0.869873,0.290527,29.740458,2.267176,9.816793
0.062500,0.860107,0.276611,28.809160,2.290076,8.343512
0.068359,0.879883,0.276367,24.961832,6.900764,7.923664
0.073730,0.872803,0.265625,24.893129,11.389313,7.480916
0.054932,0.871582,0.278320,23.862595,13.335877,6.877862
0.037109,0.865723,0.297852,22.374046,11.916031,6.145038
0.032227,0.868896,0.285156,21.816793,10.496183,5.351145
0.017090,0.877930,0.301514,20.541985,6.717557,5.832061
0.032471,0.875488,0.289551,21.244274,7.320611,6.534351
0.053711,0.865723,0.312012,22.740458,12.458015,6.854962
0.063965,0.871826,0.317627,23.854961,11.694656,6.603054
0.086426,0.865479,0.292969,25.694656,16.152672,5.068702
0.071045,0.867188,0.278564,27.076336,12.694656,2.557252
0.070312,0.891113,0.245850,26.190840,11.519084,-0.076336
0.062012,0.893066,0.215088,22.778625,10.610687,-2.167939
0.044189,0.911621,0.202393,18.557251,9.641221,-2.351145
0.053223,0.904541,0.230957,16.908398,10.496183,-2.007634
0.048584,0.903564,0.227783,15.854961,12.404580,-0.648855
0.065430,0.890137,0.282227,15.129771,15.641221,0.740458
0.056396,0.882568,0.300293,14.763359,19.458015,2.946565
0.062744,0.876221,0.299561,14.809160,24.312977,5.335878
0.042725,0.866943,0.307861,16.633587,26.427481,6.671756
0.023926,0.855713,0.305664,20.404581,25.190840,7.251908
0.012939,0.876221,0.290527,22.244274,22.603054,8.786260
0.028076,0.895264,0.271484,23.427481,19.977098,11.160305
0.014648,0.910400,0.250488,22.839695,16.656488,12.938931
0.014648,0.915039,0.234863,23.137405,9.923664,12.740458
0.037842,0.926025,0.228027,21.259542,7.244275,12.687023
0.070312,0.916504,0.261719,14.145039,10.687023,13.167939
0.108154,0.891602,0.310059,8.687023,24.526718,15.778625
0.113770,0.865234,0.354492,6.549618,38.312977,20.511450
0.065918,0.851318,0.390625,6.221374,47.053436,24.519083
0.041260,0.844971,0.393799,11.305344,46.458015,26.458015
0.020508,0.841309,0.403809,17.893129,43.648853,29.114504
0.015869,0.850830,0.372803,23.091602,41.366413,33.381680
0.023193,0.901611,0.299316,27.381680,40.732826,36.740459
0.018066,0.941650,0.250488,30.305344,35.633587,38.694656
0.038086,0.970459,0.186279,33.030533,28.610687,37.351147
0.066162,0.978271,0.137695,30.190840,25.007633,35.496181
0.102783,0.983398,0.115723,27.862595,23.549618,33.190838
0.140381,1.007812,0.088135,25.083969,24.854961,29.038168
0.157471,1.000244,0.067627,20.198473,27.923664,22.091602
0.181885,0.962158,0.125244,11.946565,32.389313,16.229008
0.187012,0.946533,0.171875,5.114504,38.900764,13.656488
0.169189,0.921143,0.179199,5.167939,44.496181,12.076336
0.127686,0.881592,0.249023,8.244275,44.595421,12.404580
0.089111,0.872559,0.230225,14.290076,40.221375,12.832061
0.050293,0.914551,0.162842,21.183207,31.068703,12.435115
0.019287,0.951416,0.090820,24.251909,18.473282,12.152672
0.028320,0.981689,0.047852,20.282442,7.557252,11.801527
0.075928,0.990967,0.041504,13.259542,1.511450,11.061069
0.113770,0.972168,0.053955,4.641222,3.259542,10.251908