acce_x,acce_y,acce_z,gyro_x,gyro_y,gyro_z
0.113525,-0.447754,0.766357,-4.106870,4.374046,1.221374
0.109131,-0.449951,0.761963,-4.022901,4.648855,2.358779
0.112305,-0.451172,0.760254,-3.412214,3.824427,3.145038
0.117920,-0.458008,0.767334,-2.236641,0.687023,1.679389
0.128662,-0.470703,0.778076,0.114504,-1.625954,-1.450382
0.136475,-0.483887,0.785645,2.687023,-2.297710,-4.374046
0.127686,-0.485107,0.797607,5.396946,-4.038168,-6.702290
0.129395,-0.480225,0.813721,8.114504,-4.709924,-8.503817
0.125732,-0.473633,0.801270,9.465649,-4.969466,-9.664123
0.117676,-0.467773,0.787109,9.358779,-4.572519,-9.755725
0.106689,-0.447510,0.771729,8.374045,-4.702290,-8.061069
0.101807,-0.439453,0.756592,6.053435,-2.923664,-5.572519
0.108643,-0.423828,0.745117,2.366412,-1.061069,-3.465649
0.115234,-0.415039,0.725342,-1.801527,3.114504,-0.290076
0.114258,-0.408447,0.733887,-4.763359,6.106870,3.732824
0.117676,-0.426270,0.747559,-5.389313,7.977099,4.648855
0.129883,-0.450439,0.768066,-4.381680,8.236641,2.755725
0.123047,-0.470947,0.786865,-0.801527,5.297710,-0.503817
0.119629,-0.480957,0.814941,3.091603,2.206107,-3.595420
0.132812,-0.503418,0.834961,9.206107,-0.427481,-6.824428
0.116699,-0.509521,0.857178,17.717558,-2.755725,-9.709924
0.121094,-0.518066,0.864502,29.190840,-3.832061,-12.709924
0.117432,-0.509277,0.887939,36.427483,-4.198473,-14.190840
0.110352,-0.494141,0.861084,39.404579,-4.366412,-14.183207
0.090332,-0.459229,0.824951,39.152672,-5.961832,-11.183207
0.087646,-0.433350,0.798096,38.832062,-6.992366,-7.633588
0.121582,-0.346924,0.729492,32.595421,-1.595420,-2.969466
0.115234,-0.416992,0.806641,31.267176,-1.137405,-1.511450
0.129150,-0.397705,0.739990,28.061069,3.106870,-1.122137
0.139648,-0.390869,0.735352,25.450382,6.465649,-0.900763
0.135010,-0.413330,0.761475,26.954199,8.412213,-2.312977
0.146973,-0.439941,0.813477,33.564884,9.740458,-5.618320
0.152832,-0.460938,0.860596,44.114502,10.702291,-11.679389
0.152588,-0.468262,0.901611,56.572517,10.045801,-16.274809
0.130371,-0.475586,0.932129,69.709923,9.022901,-19.320610
0.138916,-0.486572,0.965332,79.709923,11.374045,-22.885496
0.145264,-0.479980,0.968994,88.992363,14.167939,-25.664122
0.128906,-0.447021,0.939941,97.923668,13.297709,-26.328245
0.072510,-0.414062,0.906006,104.404579,6.687023,-22.022902
0.043945,-0.365967,0.852295,105.198471,-3.290076,-17.068703
0.046631,-0.321289,0.804932,104.190842,-11.648855,-14.061069
0.083740,-0.295410,0.795654,98.702293,-13.847328,-11.229008
0.108154,-0.300049,0.795654,95.442749,-10.267176,-8.938931
0.117676,-0.278564,0.800049,92.427483,-3.587786,-6.099236
0.131104,-0.264404,0.790771,89.488548,4.374046,-3.709924
0.164551,-0.260254,0.790527,87.328247,10.946565,-4.091603
0.172363,-0.257324,0.805420,83.343513,15.503817,-7.267176
0.176514,-0.244629,0.826660,80.106873,19.198473,-10.015267
0.163818,-0.237793,0.871582,79.145035,22.435114,-10.412213
0.163330,-0.234619,0.883789,78.396950,24.763359,-10.450381
0.119629,-0.209961,0.856689,75.473282,23.435114,-8.778625
0.086426,-0.178223,0.817627,72.206108,20.061069,-5.572519
0.071533,-0.175293,0.812500,68.229004,15.603053,-2.328244
0.082764,-0.162109,0.816650,67.137405,9.725191,-2.198473
0.105225,-0.150635,0.815186,63.755726,7.503817,-2.435115
0.113037,-0.149902,0.818359,59.427483,6.221374,-4.129771
0.121094,-0.146240,0.812256,57.351147,7.221374,-5.152672
0.133301,-0.148193,0.838867,58.564884,7.511450,-6.412214
0.140869,-0.154297,0.854004,60.351147,9.938931,-10.175572
0.135742,-0.155762,0.883301,61.862595,8.549619,-13.694656
0.129883,-0.162598,0.912598,67.351143,5.847328,-17.282442
0.123047,-0.159180,0.941406,74.824425,8.656488,-19.213741
0.114990,-0.156250,0.965332,76.091606,8.770992,-17.664122
0.102295,-0.138672,0.942383,76.091606,10.625955,-14.259542
0.083008,-0.133789,0.936279,76.274811,9.251908,-11.152672
0.077637,-0.117432,0.932129,77.969467,5.503817,-9.312977
0.098145,-0.113525,0.904541,80.290077,5.587786,-10.893129
0.111084,-0.107910,0.912842,83.496185,6.297710,-12.236641
0.107910,-0.092041,0.926025,88.641220,6.465649,-12.381680
0.095215,-0.081055,0.916504,92.320610,8.183207,-11.870229
0.090576,-0.083008,0.920654,96.725189,8.801527,-12.015267
0.104736,-0.083252,0.932617,106.969467,9.557252,-13.229008
0.111816,-0.102051,0.979736,118.137405,7.625954,-17.900763
0.101074,-0.095215,0.982422,128.335876,2.580153,-22.328245
0.055664,-0.080566,0.993652,130.389313,-4.114504,-24.343512
0.042236,-0.042969,0.899902,129.610687,-3.832061,-22.053434
0.062012,0.008545,0.892090,127.305344,-1.503817,-19.435114
0.025635,0.041016,0.845459,122.610687,-1.717557,-13.740458
0.028320,0.093018,0.806885,114.160309,1.297710,-6.114504
0.030273,0.111084,0.775146,107.687019,4.595420,-2.328244
0.049805,0.141357,0.776855,101.969467,9.763359,1.603053
0.055664,0.148682,0.755371,95.045799,14.435115,4.770992
0.061035,0.170898,0.742676,89.114502,17.557251,6.404580
0.070801,0.183350,0.751221,82.664124,20.694656,6.137404
0.090332,0.194092,0.734131,78.320610,23.030535,3.709924
0.091797,0.202637,0.738525,75.725189,18.305344,0.717557
0.111816,0.223877,0.749268,73.816795,16.763359,-2.137405
0.093994,0.228271,0.754395,70.328247,21.625954,-1.389313
0.069336,0.236816,0.761719,69.519081,24.282442,-0.122137
0.057373,0.254639,0.755371,65.946564,22.839695,2.625954
0.042236,0.268066,0.746338,62.969467,20.702290,4.351145
0.056641,0.253662,0.764160,64.603050,19.931297,3.137405
0.076904,0.243164,0.785156,66.435112,18.717558,0.984733
0.073975,0.261475,0.793945,64.511452,15.007633,-0.374046
0.059570,0.284180,0.781494,62.343510,12.000000,-0.045802
0.061035,0.292725,0.779541,60.305344,11.458015,-0.007634
0.064453,0.297852,0.773438,59.923664,9.763359,-1.320611
0.068848,0.304688,0.775635,58.343510,7.282443,-4.740458
0.089844,0.289307,0.783691,59.931297,7.488550,-7.961832
0.088867,0.289307,0.801025,61.496181,7.755725,-9.519084
0.075439,0.305420,0.819092,59.801525,9.763359,-8.160305
0.081543,0.305420,0.816162,57.526718,16.458015,-4.961832
0.067139,0.303223,0.827881,56.412212,19.198473,-0.816794
0.046143,0.308350,0.851807,57.015266,18.725191,1.022901
0.048096,0.308105,0.827393,60.725189,17.656488,1.366412
0.040771,0.310791,0.841553,65.274811,12.564885,0.809160
0.045898,0.319092,0.820801,68.564888,9.083969,-0.351145
0.030029,0.331543,0.820068,70.229004,5.305344,-0.083969
0.036621,0.343262,0.812012,71.702293,4.702290,0.717557
0.043945,0.356201,0.803955,72.763359,7.442748,1.312977
0.056152,0.352539,0.811523,74.160309,11.473283,0.877863
0.029541,0.370850,0.828369,75.366409,9.267176,0.000000
0.054443,0.364990,0.815430,78.503815,13.961832,-1.458015
0.083496,0.371338,0.830078,81.679390,22.961832,-1.274809
0.040283,0.392822,0.825928,83.870232,23.274809,-0.221374
0.020020,0.398438,0.832031,84.206108,18.702290,0.190840
0.013672,0.432617,0.790527,81.839691,18.290077,2.717557
-0.010742,0.439209,0.734863,79.419846,12.633588,3.770992
-0.015381,0.460205,0.712891,77.068703,6.015267,0.198473
0.030029,0.472412,0.707520,76.656487,5.213740,-0.977099
0.083252,0.451660,0.713135,78.122139,20.603054,1.816794
0.057373,0.476074,0.728516,78.000000,25.816793,2.793893
0.032227,0.491699,0.707764,75.076332,29.526718,3.564885
0.025879,0.509277,0.695557,73.259544,31.664122,4.541985
0.019775,0.498047,0.694336,75.603050,31.679390,3.282443
0.019287,0.495605,0.718506,78.610687,27.992367,1.633588
-0.006104,0.518311,0.701660,79.748093,22.870230,2.000000
-0.006592,0.521729,0.674072,81.267174,20.687023,1.709924
0.007568,0.530273,0.682861,81.412216,18.961832,1.992366
-0.010498,0.554199,0.644287,80.526718,18.381680,3.595420
0.000488,0.577148,0.650146,75.198471,16.580153,5.786260
0.022461,0.587891,0.636475,71.106873,19.236641,6.038168
0.020020,0.576660,0.643066,68.732826,16.259542,3.671756
0.040283,0.588867,0.641113,66.061066,20.221375,3.572519
0.008301,0.580078,0.635742,65.015266,20.916031,4.633588
0.006592,0.583740,0.628174,67.343513,25.549618,5.832061
-0.005127,0.579834,0.665771,70.633591,20.778625,5.541985
-0.012207,0.584961,0.662109,72.725189,16.847328,5.404580
-0.006592,0.607178,0.632324,71.458015,16.748091,6.954198
0.002930,0.624512,0.613525,69.763359,16.625954,7.435114
0.005615,0.630859,0.604248,69.458015,14.763359,5.557252
0.008545,0.655762,0.573242,68.702293,11.908397,4.427481
0.023438,0.660400,0.559326,65.702293,13.679389,4.114504
-0.002197,0.613281,0.630127,59.206108,11.610687,4.061069
0.012207,0.642334,0.521973,54.877861,9.465649,3.267176
0.017090,0.680908,0.551025,51.206108,11.496183,4.122138
-0.008057,0.679932,0.563721,47.862595,9.458015,5.267176
-0.023438,0.676025,0.565430,45.961834,3.832061,4.763359
-0.036621,0.687744,0.532471,44.824429,0.083969,5.534351
-0.045654,0.692871,0.541748,44.618320,-10.366412,6.221374
-0.067871,0.687256,0.542969,49.847328,-28.374046,-2.465649
-0.035645,0.704102,0.497070,49.893131,-41.900764,-10.152672
-0.000977,0.729980,0.480225,45.435116,-40.595421,-7.488550
0.059326,0.715820,0.509766,41.152672,-32.381680,-6.312977
0.076660,0.743652,0.531982,35.961834,-28.099237,-6.137404
0.081055,0.718506,0.535645,33.038166,-15.816793,-6.580153
0.036865,0.697754,0.527832,35.175571,-8.916031,-3.740458
0.039551,0.690674,0.539551,36.526718,-1.809160,0.534351
0.069824,0.700684,0.539307,38.160305,11.290076,3.679389
0.067139,0.691895,0.546387,41.854961,18.549618,1.809160
0.040771,0.696045,0.577148,44.404579,23.229008,2.526718
-0.003906,0.714600,0.583252,46.641220,24.206106,6.221374
-0.018555,0.723389,0.544434,49.015266,21.541985,8.358779
-0.018799,0.750977,0.526855,49.114502,15.664123,8.374045
-0.015137,0.774902,0.514648,47.000000,8.160305,7.839694
0.003906,0.769287,0.505371,45.824429,4.358778,6.610687
0.015137,0.773926,0.502686,45.190838,2.106870,4.541985
0.029541,0.783447,0.493896,43.519085,-0.656489,1.778626
0.038086,0.788330,0.448486,41.519085,-1.732824,-0.809160
0.052002,0.790039,0.439697,38.183205,1.244275,-2.396947
0.056641,0.781982,0.447510,35.633587,4.877862,-3.923664
0.051758,0.769531,0.440186,35.076336,10.015267,-4.893130
0.034424,0.762939,0.436279,36.603054,13.618320,-5.862596
0.012451,0.764404,0.441406,35.068703,17.389313,-3.847328
-0.013916,0.773438,0.422119,34.229008,18.297710,-2.206107
-0.035400,0.767334,0.439453,32.190838,17.030535,-1.480916
-0.043457,0.770996,0.452637,31.091602,12.717557,-1.557252
-0.057861,0.767822,0.441650,30.572519,7.007634,-1.801527
-0.053467,0.787598,0.452637,27.641222,4.496183,-0.167939
-0.049072,0.793945,0.437988,25.221375,-1.038168,-0.045802
-0.050781,0.797119,0.431885,23.725191,-9.595420,-1.916031
-0.021240,0.796387,0.411865,22.480917,-11.000000,-3.572519
0.023682,0.782715,0.403320,21.496183,-6.030534,-5.053435
0.003174,0.782715,0.418701,18.969465,-7.038168,-7.137404
-0.005615,0.761230,0.419922,18.770992,-6.259542,-8.038168
-0.004639,0.742432,0.432129,20.984734,-0.229008,-5.519084
-0.013428,0.736328,0.462646,21.603054,8.137404,-0.076336
-0.017822,0.738281,0.455811,24.320610,15.877863,4.274809
-0.049072,0.731689,0.502930,26.961832,17.625954,7.709924
-0.056885,0.745850,0.508545,31.396946,17.740458,11.190840
-0.056641,0.760498,0.493408,33.717556,14.992367,14.709924
-0.049561,0.788086,0.476807,32.740459,9.480916,16.274809
-0.017334,0.785889,0.498779,34.297710,5.648855,15.946565
0.003174,0.784668,0.490723,37.541985,5.335878,15.229008
0.024902,0.796387,0.476318,42.282444,6.625954,14.885496
0.057617,0.804932,0.442139,44.793892,11.458015,14.320611
0.031738,0.829834,0.429443,45.351147,9.725191,14.572519
0.033936,0.829834,0.423828,43.877861,11.465649,15.366412
0.041016,0.850586,0.379639,42.488548,13.473283,16.977098
0.061523,0.868652,0.386475,39.648853,14.709924,17.549618
0.067383,0.863770,0.384766,39.007633,13.961832,15.404580
0.097656,0.866699,0.391846,39.633587,18.664122,13.854961
0.081787,0.857422,0.394287,40.526718,22.694656,11.916031
0.052002,0.854980,0.397949,39.946564,22.427481,10.076336
0.046875,0.859863,0.384033,38.961834,21.870230,9.877863
0.025635,0.853027,0.375000,37.763359,22.633587,9.923664
0.011230,0.851562,0.366943,36.236641,24.335878,10.824428
-0.007080,0.853271,0.363525,35.931297,25.137405,11.717557
-0.036133,0.852539,0.333496,37.114502,22.167938,12.717557
-0.046143,0.868164,0.330322,37.244274,16.595419,13.549619
-0.045654,0.866455,0.344238,36.763359,11.343512,13.954199
-0.018311,0.873291,0.323730,35.832062,9.587787,15.030535
0.003174,0.877686,0.325439,35.770992,9.862596,14.664123
0.020752,0.860107,0.331543,34.656490,11.152672,15.198473
0.035889,0.873047,0.319336,32.893131,14.007633,16.740458
0.042969,0.864502,0.304443,33.145039,15.702291,16.496183
0.032715,0.865967,0.321289,35.389313,14.839695,16.603054
0.020508,0.876709,0.328857,36.244274,13.809160,17.396946
-0.005615,0.894531,0.291748,36.916031,7.984733,18.122137
-0.045898,0.949219,0.245361,35.984734,-3.809160,18.793894
-0.079590,0.956543,0.209473,34.366413,-22.893129,19.427481
-0.066162,1.004639,0.166504,29.190840,-37.175571,20.778625
-0.050293,1.019043,0.137207,20.038168,-49.610687,21.580153
-0.002197,0.980957,0.168213,11.297709,-59.190838,22.946566
0.089844,0.926514,0.212158,8.572519,-55.595421,21.083969
0.166260,0.856689,0.274658,12.091603,-44.847328,20.282442
0.234619,0.827881,0.343262,18.320610,-26.603054,20.183207
0.285645,0.790283,0.396240,26.145039,-6.839694,16.770992
0.287598,0.786621,0.410645,34.320610,6.366412,10.984733
0.238525,0.827148,0.359131,37.984734,11.977099,5.465649
0.195312,0.862793,0.330078,37.679390,11.503817,2.641221
0.158936,0.900635,0.302246,36.587788,12.450381,3.633588
0.124756,0.907959,0.239746,36.091602,13.770992,6.557252
0.087646,0.941650,0.197021,33.000000,11.389313,10.007633
0.074219,0.946289,0.195068,30.534351,5.213740,11.442748
0.097412,0.943359,0.177490,27.717558,1.580153,11.793893
0.125000,0.940430,0.168945,26.564886,2.954198,10.152672
0.124023,0.926270,0.155273,26.503817,2.175573,7.519084
0.164795,0.899414,0.185791,26.488550,4.450382,3.916031
0.149414,0.896729,0.199707,27.435114,5.519084,0.213740
0.141602,0.892090,0.209717,28.267176,5.595420,-4.053435
0.118408,0.894287,0.191406,27.748091,6.206107,-6.381680
0.110352,0.889404,0.199219,27.198473,9.656488,-7.793893
0.074951,0.887695,0.187988,26.633587,12.045801,-7.572519
0.049561,0.876465,0.216309,27.625954,13.916031,-6.099236
0.023193,0.865967,0.213867,28.778625,13.625955,-3.038168
-0.000244,0.888184,0.197754,28.206106,13.381680,-0.015267
-0.004639,0.888916,0.187744,26.702290,10.305344,2.480916
-0.012451,0.894287,0.165527,24.541985,6.488550,5.259542
-0.012207,0.918701,0.152100,22.793894,2.824427,8.145039
0.007568,0.893311,0.176514,23.229008,0.885496,8.015267
0.043213,0.872070,0.206787,22.053434,7.328244,10.076336
0.055176,0.858887,0.230957,23.198473,11.931297,10.045801
0.082520,0.866943,0.235352,23.885496,17.221375,11.465649
0.082275,0.861084,0.216064,25.748091,23.908398,9.801527
0.071777,0.877686,0.192139,26.740458,27.664122,8.511451
0.029053,0.900391,0.162598,26.664122,26.931297,7.541985
-0.006592,0.928711,0.131348,27.068703,22.290077,9.190840
0.005615,0.935791,0.125488,24.625954,19.244274,11.267176
0.009277,0.940674,0.112549,23.404581,16.000000,11.564885
0.028564,0.931641,0.103027,21.900763,16.862595,9.404580
0.036377,0.923828,0.096680,21.114504,17.427481,8.366412
0.046387,0.929199,0.118652,20.190840,18.045801,7.419847
0.061279,0.919678,0.118164,17.343512,21.893129,6.709924
0.054688,0.914551,0.135254,15.190840,24.801527,6.106870
0.054932,0.905762,0.138672,12.916031,26.679390,6.045802
0.039062,0.897705,0.117676,11.244275,29.152672,5.763359
0.014648,0.918701,0.115723,10.435115,26.290077,5.854962
0.017822,0.909424,0.108398,11.931297,24.213741,7.183206
0.028076,0.918701,0.112061,12.000000,25.053434,9.938931
0.030518,0.928955,0.091064,13.000000,20.633587,11.480916
0.037354,0.954346,0.091553,11.335877,13.893129,13.114504
0.071289,0.965820,0.049805,8.961832,11.206107,11.526717
0.104492,0.979980,0.027588,6.152672,6.427481,10.679389
0.137451,0.979492,0.001221,5.328244,4.832061,6.519084
0.156982,0.975830,0.013916,4.931298,8.198473,1.893130
0.177246,0.963135,0.028076,4.725191,13.015267,-1.206107
0.170410,0.967285,0.043213,1.526718,18.030535,-3.221374
0.135742,0.958008,0.051025,-0.748092,18.916031,-6.267176
0.090820,0.943604,0.074463,-0.366412,14.496183,-9.099236